#時刻 刻み幅 roll pitch yaw gx gy gz ax ay az mx my mz R L F B
2529036417 2 -0.642261 3.015584 126.264297 0.000000 0.000000 0.000000 1.768293 0.000000 -1.890244 0.016113 -0.007324 1.032227 0.000000 0.000000 0.000000 1.000000 1.000000 1.000000 1.000000
2529038417 2000 -0.642902 3.014884 126.257385 0.000000 0.000000 0.000000 1.707317 -0.121951 -1.768293 0.019531 -0.013672 1.027832 0.000000 0.000000 0.000000 1.000000 1.000000 1.000000 1.000000
2529040417 2000 -0.642758 3.015253 126.250435 0.000000 0.000000 0.000000 1.707317 -0.121951 -1.768293 0.012207 -0.003906 1.009766 0.000000 0.000000 0.000000 1.000000 1.000000 1.000000 1.000000
2529042417 2000 -0.642826 3.015000 126.243645 0.000000 0.000000 0.000000 1.829268 -0.121951 -1.707317 0.014160 -0.011719 1.019531 0.000000 0.000000 0.000000 1.000000 1.000000 1.000000 1.000000
2529044417 2000 -0.641698 3.016291 126.236473 0.000000 0.000000 0.000000 1.707317 0.243902 -1.890244 0.010254 0.004395 1.028320 0.000000 0.000000 0.000000 1.000000 1.000000 1.000000 1.000000
2529046417 2000 -0.641692 3.015873 126.229820 0.000000 0.000000 0.000000 1.829268 0.000000 -1.646342 0.015625 -0.013184 1.020508 0.000000 0.000000 0.000000 1.000000 1.000000 1.000000 1.000000
2529048417 2000 -0.641432 3.015463 126.222824 0.000000 0.000000 0.000000 1.585366 0.304878 -1.829268 0.019043 -0.008789 1.023438 0.000000 0.000000 0.000000 1.000000 1.000000 1.000000 1.000000
2529050417 2000 -0.640598 3.015740 126.215897 0.000000 0.000000 0.000000 1.768293 0.000000 -1.768293 0.008301 -0.005859 1.022461 0.000000 0.000000 0.000000 1.000000 1.000000 1.000000 1.000000
2529052417 2000 -0.641465 3.016987 126.209099 0.000000 0.000000 0.000000 1.768293 0.121951 -1.707317 0.025879 0.002930 1.026367 0.000000 0.000000 0.000000 1.000000 1.000000 1.000000 1.000000
2529054417 2000 -0.641236 3.017430 126.202660 0.000000 0.000000 0.000000 1.585366 0.121951 -1.524390 0.015625 -0.000977 1.015625 0.000000 0.000000 0.000000 1.000000 1.000000 1.000000 1.000000
2529056417 2000 -0.641636 3.017211 126.195381 0.000000 0.000000 0.000000 1.463415 -0.121951 -1.951220 0.017578 -0.004883 1.032227 0.000000 0.000000 0.000000 1.000000 1.000000 1.000000 1.000000
2529058417 2000 -0.642099 3.017741 126.188568 0.000000 0.000000 0.000000 1.707317 -0.060976 -1.707317 0.019043 -0.002441 1.032715 0.000000 0.000000 0.000000 1.000000 1.000000 1.000000 1.000000
2529060417 2000 -0.642001 3.017372 126.181915 0.000000 0.000000 0.000000 1.585366 0.182927 -1.646342 0.018066 -0.008301 1.019043 0.000000 0.000000 0.000000 1.000000 1.000000 1.000000 1.000000
2529062417 2000 -0.641556 3.017478 126.175270 0.000000 0.000000 0.000000 1.768293 0.304878 -1.646342 0.017090 -0.007324 1.016113 0.000000 0.000000 0.000000 1.000000 1.000000 1.000000 1.000000
2529064417 2000 -0.640704 3.017272 126.168114 0.000000 0.000000 0.000000 1.829268 0.060976 -1.890244 0.009277 -0.011230 1.013672 0.000000 0.000000 0.000000 1.000000 1.000000 1.000000 1.000000
2529066417 2000 -0.641388 3.017101 126.160942 0.000000 0.000000 0.000000 1.463415 -0.060976 -1.890244 0.020996 -0.004395 1.021973 0.000000 0.000000 0.000000 1.000000 1.000000 1.000000 1.000000
2529068417 2000 -0.641189 3.017099 126.154411 0.000000 0.000000 0.000000 1.768293 0.182927 -1.585366 0.017090 -0.008301 1.019043 0.000000 0.000000 0.000000 1.000000 1.000000 1.000000 1.000000
2529070417 2000 -0.640411 3.016647 126.148293 0.000000 0.000000 0.000000 1.707317 0.426829 -1.402439 0.016113 -0.011230 1.020996 0.000000 0.000000 0.000000 1.000000 1.000000 1.000000 1.000000
2529072417 2000 -0.639786 3.016016 126.141380 0.000000 0.000000 0.000000 1.646342 0.121951 -1.768293 0.012207 -0.011719 1.009766 0.000000 0.000000 0.000000 1.000000 1.000000 1.000000 1.000000
2529074417 2000 -0.639939 3.014837 126.134193 0.000000 0.000000 0.000000 1.463415 -0.182927 -1.890244 0.014160 -0.013672 1.034668 0.000000 0.000000 0.000000 1.000000 1.000000 1.000000 1.000000
2529076417 2000 -0.640018 3.015117 126.127190 0.000000 0.000000 0.000000 1.768293 0.243902 -1.829268 0.020996 -0.005859 1.023926 0.000000 0.000000 0.000000 1.000000 1.000000 1.000000 1.000000
2529078417 2000 -0.640027 3.016236 126.120605 0.000000 0.000000 0.000000 1.707317 -0.121951 -1.585366 0.013672 0.002930 1.034668 0.000000 0.000000 0.000000 1.000000 1.000000 1.000000 1.000000
2529080417 2000 -0.639772 3.015438 126.114075 0.000000 0.000000 0.000000 1.585366 0.182927 -1.585366 0.016602 -0.012207 1.020996 0.000000 0.000000 0.000000 1.000000 1.000000 1.000000 1.000000
2529082417 2000 -0.640012 3.015665 126.107040 0.000000 0.000000 0.000000 1.768293 0.000000 -1.829268 0.018066 -0.006348 1.025391 0.000000 0.000000 0.000000 1.000000 1.000000 1.000000 1.000000
2529084417 2000 -0.639601 3.015967 126.100098 0.000000 0.000000 0.000000 1.890244 -0.182927 -1.768293 0.008789 -0.007812 1.020996 0.000000 0.000000 0.000000 1.000000 1.000000 1.000000 1.000000
2529086417 2000 -0.638624 3.015929 126.092834 0.000000 0.000000 0.000000 1.585366 0.182927 -1.951220 0.010254 -0.005371 1.004395 0.000000 0.000000 0.000000 1.000000 1.000000 1.000000 1.000000
2529088417 2000 -0.638542 3.014832 126.086044 0.000000 0.000000 0.000000 1.463415 0.121951 -1.707317 0.017090 -0.012695 1.017578 0.000000 0.000000 0.000000 1.000000 1.000000 1.000000 1.000000
2529090417 2000 -0.638858 3.015238 126.079117 0.000000 0.000000 0.000000 1.829268 -0.121951 -1.768293 0.016602 -0.005859 1.033691 0.000000 0.000000 0.000000 1.000000 1.000000 1.000000 1.000000
2529092417 2000 -0.639953 3.015473 126.072311 0.000000 0.000000 0.000000 1.585366 -0.060976 -1.707317 0.024414 -0.002930 1.018066 0.000000 0.000000 0.000000 1.000000 1.000000 1.000000 1.000000
2529094417 2000 -0.639637 3.015478 126.065788 0.000000 0.000000 0.000000 1.768293 0.182927 -1.585366 0.016113 -0.008301 1.025879 0.000000 0.000000 0.000000 1.000000 1.000000 1.000000 1.000000
2529096417 2000 -0.639520 3.014345 126.058624 0.000000 0.000000 0.000000 1.524390 -0.060976 -1.890244 0.013672 -0.014160 1.016113 0.000000 0.000000 0.000000 1.000000 1.000000 1.000000 1.000000
2529098417 2000 -0.639383 3.014322 126.051727 0.000000 0.000000 0.000000 1.646342 0.121951 -1.768293 0.016602 -0.006348 1.013672 0.000000 0.000000 0.000000 1.000000 1.000000 1.000000 1.000000
2529100417 2000 -0.639256 3.014488 126.044800 0.000000 0.000000 0.000000 1.768293 0.060976 -1.768293 0.015625 -0.006836 1.014648 0.000000 0.000000 0.000000 1.000000 1.000000 1.000000 1.000000
2529102417 2000 -0.638882 3.014290 126.037888 0.000000 0.000000 0.000000 1.585366 -0.060976 -1.768293 0.011230 -0.006836 1.015625 0.000000 0.000000 0.000000 1.000000 1.000000 1.000000 1.000000
2529104417 2000 -0.638134 3.014107 126.030853 0.000000 0.000000 0.000000 1.646342 0.121951 -1.829268 0.011230 -0.007812 1.018066 0.000000 0.000000 0.000000 1.000000 1.000000 1.000000 1.000000
2529106417 2000 -0.637747 3.014292 126.023849 0.000000 0.000000 0.000000 1.585366 0.243902 -1.829268 0.016602 -0.003418 1.014648 0.000000 0.000000 0.000000 1.000000 1.000000 1.000000 1.000000
2529108417 2000 -0.638910 3.013959 126.016907 0.000000 0.000000 0.000000 1.707317 -0.121951 -1.768293 0.023926 -0.010254 1.017090 0.000000 0.000000 0.000000 1.000000 1.000000 1.000000 1.000000
2529110417 2000 -0.638009 3.015893 126.010239 0.000000 0.000000 0.000000 1.890244 0.182927 -1.646342 0.010742 0.006836 1.013672 0.000000 0.000000 0.000000 1.000000 1.000000 1.000000 1.000000
2529112417 2000 -0.637781 3.015888 126.002945 0.000000 0.000000 0.000000 1.463415 0.121951 -1.951220 0.016113 -0.002930 1.024414 0.000000 0.000000 0.000000 1.000000 1.000000 1.000000 1.000000
2529114417 2000 -0.639350 3.015824 125.996117 0.000000 0.000000 0.000000 1.463415 -0.243902 -1.707317 0.025391 -0.003418 1.019043 0.000000 0.000000 0.000000 1.000000 1.000000 1.000000 1.000000
2529116417 2000 -0.639207 3.016245 125.989616 0.000000 0.000000 0.000000 1.951220 0.426829 -1.585366 0.021973 -0.007812 1.020996 0.000000 0.000000 0.000000 1.000000 1.000000 1.000000 1.000000
2529118417 2000 -0.639439 3.015087 125.982841 0.000000 0.000000 0.000000 1.646342 0.121951 -1.707317 0.020020 -0.016602 1.022461 0.000000 0.000000 0.000000 1.000000 1.000000 1.000000 1.000000
2529120417 2000 -0.639223 3.015123 125.975945 0.000000 0.000000 0.000000 1.646342 0.121951 -1.768293 0.016113 -0.005859 1.027344 0.000000 0.000000 0.000000 1.000000 1.000000 1.000000 1.000000
2529122417 2000 -0.639259 3.015829 125.969398 0.000000 0.000000 0.000000 1.768293 0.121951 -1.585366 0.018066 -0.001953 1.019043 0.000000 0.000000 0.000000 1.000000 1.000000 1.000000 1.000000
2529124417 2000 -0.639522 3.015134 125.962868 0.000000 0.000000 0.000000 1.585366 0.121951 -1.585366 0.020020 -0.011230 1.014160 0.000000 0.000000 0.000000 1.000000 1.000000 1.000000 1.000000
2529126417 2000 -0.639316 3.014190 125.956184 0.000000 0.000000 0.000000 1.585366 -0.121951 -1.646342 0.011719 -0.013672 1.031250 0.000000 0.000000 0.000000 1.000000 1.000000 1.000000 1.000000
2529128417 2000 -0.638647 3.014695 125.949532 0.000000 0.000000 0.000000 1.585366 0.304878 -1.646342 0.015137 -0.000488 1.023438 0.000000 0.000000 0.000000 1.000000 1.000000 1.000000 1.000000
2529130417 2000 -0.638800 3.014700 125.942993 0.000000 0.000000 0.000000 2.012195 0.060976 -1.585366 0.018066 -0.012695 1.021484 0.000000 0.000000 0.000000 1.000000 1.000000 1.000000 1.000000
2529132417 2000 -0.638578 3.014820 125.935844 0.000000 0.000000 0.000000 1.768293 0.121951 -1.890244 0.016113 -0.007324 1.024414 0.000000 0.000000 0.000000 1.000000 1.000000 1.000000 1.000000
2529134417 2000 -0.639579 3.013989 125.928688 0.000000 0.000000 0.000000 1.402439 0.060976 -1.890244 0.025879 -0.009277 1.017090 0.000000 0.000000 0.000000 1.000000 1.000000 1.000000 1.000000
2529136417 2000 -0.639842 3.014098 125.922394 0.000000 0.000000 0.000000 1.768293 0.121951 -1.463415 0.020020 -0.007324 1.019531 0.000000 0.000000 0.000000 1.000000 1.000000 1.000000 1.000000
2529138417 2000 -0.639690 3.014191 125.915482 0.000000 0.000000 0.000000 1.646342 0.060976 -1.768293 0.015625 -0.005371 1.029785 0.000000 0.000000 0.000000 1.000000 1.000000 1.000000 1.000000
2529140417 2000 -0.639289 3.013901 125.908714 0.000000 0.000000 0.000000 1.402439 0.243902 -1.707317 0.016602 -0.004395 1.028320 0.000000 0.000000 0.000000 1.000000 1.000000 1.000000 1.000000
2529142417 2000 -0.639910 3.014630 125.901657 0.000000 0.000000 0.000000 1.585366 0.060976 -1.829268 0.022461 0.001465 1.018066 0.000000 0.000000 0.000000 1.000000 1.000000 1.000000 1.000000
2529144417 2000 -0.640495 3.014457 125.894760 0.000000 0.000000 0.000000 1.707317 0.060976 -1.768293 0.021973 -0.008789 1.013184 0.000000 0.000000 0.000000 1.000000 1.000000 1.000000 1.000000
2529146417 2000 -0.641143 3.015114 125.887833 0.000000 0.000000 0.000000 1.768293 -0.060976 -1.768293 0.020508 -0.002441 1.020020 0.000000 0.000000 0.000000 1.000000 1.000000 1.000000 1.000000
2529148417 2000 -0.640127 3.014891 125.880798 0.000000 0.000000 0.000000 1.463415 0.060976 -1.829268 0.007812 -0.004883 1.021484 0.000000 0.000000 0.000000 1.000000 1.000000 1.000000 1.000000
2529150417 2000 -0.640207 3.015331 125.873993 0.000000 0.000000 0.000000 1.768293 0.060976 -1.707317 0.017578 -0.004395 1.023438 0.000000 0.000000 0.000000 1.000000 1.000000 1.000000 1.000000
2529152417 2000 -0.640262 3.015577 125.866943 0.000000 0.000000 0.000000 1.890244 -0.060976 -1.829268 0.015137 -0.008301 1.014160 0.000000 0.000000 0.000000 1.000000 1.000000 1.000000 1.000000
2529154417 2000 -0.640280 3.015716 125.860031 0.000000 0.000000 0.000000 1.646342 0.121951 -1.768293 0.018066 -0.004883 1.017090 0.000000 0.000000 0.000000 1.000000 1.000000 1.000000 1.000000
2529156417 2000 -0.640659 3.015088 125.853256 0.000000 0.000000 0.000000 1.829268 -0.060976 -1.707317 0.018066 -0.015137 1.022461 0.000000 0.000000 0.000000 1.000000 1.000000 1.000000 1.000000
2529158417 2000 -0.640831 3.015038 125.846466 0.000000 0.000000 0.000000 1.524390 0.182927 -1.707317 0.020508 -0.004395 1.017578 0.000000 0.000000 0.000000 1.000000 1.000000 1.000000 1.000000
2529160417 2000 -0.641927 3.015584 125.839676 0.000000 0.000000 0.000000 1.768293 0.000000 -1.707317 0.025391 -0.003418 1.012207 0.000000 0.000000 0.000000 1.000000 1.000000 1.000000 1.000000
2529162417 2000 -0.640652 3.013942 125.832558 0.000000 0.000000 0.000000 1.524390 0.304878 -1.890244 0.009766 -0.018555 1.005371 0.000000 0.000000 0.000000 1.000000 1.000000 1.000000 1.000000
2529164417 2000 -0.640909 3.014381 125.825882 0.000000 0.000000 0.000000 1.768293 0.060976 -1.646342 0.019043 -0.004395 1.018555 0.000000 0.000000 0.000000 1.000000 1.000000 1.000000 1.000000
2529166418 2001 -0.640208 3.013722 125.818970 0.000000 0.000000 0.000000 1.402439 0.060976 -1.768293 0.010742 -0.007812 1.038086 0.000000 0.000000 0.000000 1.000000 1.000000 1.000000 1.000000
2529168418 2000 -0.639164 3.012548 125.812347 0.000000 0.000000 0.000000 1.585366 0.304878 -1.646342 0.011719 -0.015625 1.019043 0.000000 0.000000 0.000000 1.000000 1.000000 1.000000 1.000000
2529170418 2000 -0.639413 3.012788 125.805405 0.000000 0.000000 0.000000 1.829268 -0.182927 -1.768293 0.014648 -0.007324 1.017090 0.000000 0.000000 0.000000 1.000000 1.000000 1.000000 1.000000
2529172418 2000 -0.639405 3.012696 125.798599 0.000000 0.000000 0.000000 1.768293 -0.060976 -1.707317 0.014648 -0.009277 1.028809 0.000000 0.000000 0.000000 1.000000 1.000000 1.000000 1.000000
2529174418 2000 -0.640381 3.012002 125.792061 0.000000 0.000000 0.000000 1.524390 0.000000 -1.585366 0.024414 -0.010254 1.022461 0.000000 0.000000 0.000000 1.000000 1.000000 1.000000 1.000000
2529176418 2000 -0.640530 3.012309 125.785500 0.000000 0.000000 0.000000 1.890244 0.060976 -1.585366 0.018066 -0.007812 1.021973 0.000000 0.000000 0.000000 1.000000 1.000000 1.000000 1.000000
2529178418 2000 -0.641017 3.011772 125.778511 0.000000 0.000000 0.000000 1.707317 0.121951 -1.829268 0.022461 -0.012207 1.022949 0.000000 0.000000 0.000000 1.000000 1.000000 1.000000 1.000000
2529180418 2000 -0.640939 3.011859 125.771950 0.000000 0.000000 0.000000 1.646342 0.182927 -1.585366 0.018066 -0.005371 1.013184 0.000000 0.000000 0.000000 1.000000 1.000000 1.000000 1.000000
2529182418 2000 -0.641821 3.011323 125.765160 0.000000 0.000000 0.000000 1.768293 -0.060976 -1.707317 0.022461 -0.013184 1.015137 0.000000 0.000000 0.000000 1.000000 1.000000 1.000000 1.000000
2529184418 2000 -0.642460 3.011101 125.758751 0.000000 0.000000 0.000000 1.707317 0.121951 -1.524390 0.023438 -0.009277 1.017090 0.000000 0.000000 0.000000 1.000000 1.000000 1.000000 1.000000
2529186418 2000 -0.642399 3.010933 125.752213 0.000000 0.000000 0.000000 1.463415 0.121951 -1.585366 0.017090 -0.004395 1.009277 0.000000 0.000000 0.000000 1.000000 1.000000 1.000000 1.000000
2529188419 2001 -0.641955 3.011201 125.745789 0.000000 0.000000 0.000000 1.951220 0.060976 -1.524390 0.012695 -0.009277 1.022461 0.000000 0.000000 0.000000 1.000000 1.000000 1.000000 1.000000
2529190419 2000 -0.641326 3.012051 125.738861 0.000000 0.000000 0.000000 1.646342 0.243902 -1.768293 0.014648 0.001465 1.028809 0.000000 0.000000 0.000000 1.000000 1.000000 1.000000 1.000000
2529192419 2000 -0.640793 3.011232 125.731873 0.000000 0.000000 0.000000 1.646342 0.304878 -1.829268 0.016602 -0.013672 1.025391 0.000000 0.000000 0.000000 1.000000 1.000000 1.000000 1.000000
2529194419 2000 -0.641303 3.011033 125.724823 0.000000 0.000000 0.000000 1.524390 0.000000 -1.829268 0.020508 -0.005859 1.024902 0.000000 0.000000 0.000000 1.000000 1.000000 1.000000 1.000000
2529196420 2001 -0.641764 3.010994 125.718048 0.000000 0.000000 0.000000 1.768293 0.060976 -1.707317 0.020996 -0.008789 1.021484 0.000000 0.000000 0.000000 1.000000 1.000000 1.000000 1.000000
2529198420 2000 -0.641212 3.011070 125.710915 0.000000 0.000000 0.000000 1.829268 0.243902 -1.890244 0.015137 -0.008789 1.007812 0.000000 0.000000 0.000000 1.000000 1.000000 1.000000 1.000000
2529200420 2000 -0.641699 3.010867 125.703979 0.000000 0.000000 0.000000 1.524390 -0.060976 -1.768293 0.019043 -0.005859 1.018555 0.000000 0.000000 0.000000 1.000000 1.000000 1.000000 1.000000
2529202420 2000 -0.642069 3.011801 125.697174 0.000000 0.000000 0.000000 1.768293 -0.060976 -1.707317 0.018066 0.000000 1.025879 0.000000 0.000000 0.000000 1.000000 1.000000 1.000000 1.000000
2529204421 2001 -0.641541 3.012135 125.690628 0.000000 0.000000 0.000000 1.524390 0.182927 -1.585366 0.014160 -0.000977 1.019531 0.000000 0.000000 0.000000 1.000000 1.000000 1.000000 1.000000
2529206421 2000 -0.641245 3.011374 125.683731 0.000000 0.000000 0.000000 1.768293 0.121951 -1.768293 0.015137 -0.015137 1.008789 0.000000 0.000000 0.000000 1.000000 1.000000 1.000000 1.000000
2529208421 2000 -0.640387 3.011354 125.676712 0.000000 0.000000 0.000000 1.646342 0.182927 -1.829268 0.011230 -0.006348 1.004883 0.000000 0.000000 0.000000 1.000000 1.000000 1.000000 1.000000
2529210421 2000 -0.640777 3.010996 125.669678 0.000000 0.000000 0.000000 1.524390 0.000000 -1.829268 0.019531 -0.007324 1.030762 0.000000 0.000000 0.000000 1.000000 1.000000 1.000000 1.000000
2529212422 2001 -0.640334 3.011497 125.662773 0.000000 0.000000 0.000000 1.768293 0.243902 -1.768293 0.016113 -0.003906 1.016113 0.000000 0.000000 0.000000 1.000000 1.000000 1.000000 1.000000
2529214422 2000 -0.640143 3.010820 125.656235 0.000000 0.000000 0.000000 1.585366 0.121951 -1.585366 0.016113 -0.011230 1.023926 0.000000 0.000000 0.000000 1.000000 1.000000 1.000000 1.000000
2529216422 2000 -0.640953 3.010273 125.649536 0.000000 0.000000 0.000000 1.463415 -0.182927 -1.646342 0.019531 -0.007812 1.013672 0.000000 0.000000 0.000000 1.000000 1.000000 1.000000 1.000000
2529218422 2000 -0.641432 3.009498 125.642883 0.000000 0.000000 0.000000 1.646342 0.060976 -1.646342 0.020996 -0.013184 1.016602 0.000000 0.000000 0.000000 1.000000 1.000000 1.000000 1.000000
2529220423 2001 -0.641222 3.009121 125.636360 0.000000 0.000000 0.000000 1.463415 0.182927 -1.585366 0.017090 -0.006348 1.025391 0.000000 0.000000 0.000000 1.000000 1.000000 1.000000 1.000000
2529222423 2000 -0.640380 3.009112 125.629570 0.000000 0.000000 0.000000 1.646342 0.060976 -1.707317 0.009277 -0.006348 1.024902 0.000000 0.000000 0.000000 1.000000 1.000000 1.000000 1.000000
2529224423 2000 -0.640412 3.009344 125.622749 0.000000 0.000000 0.000000 1.768293 0.060976 -1.707317 0.017090 -0.006348 1.019531 0.000000 0.000000 0.000000 1.000000 1.000000 1.000000 1.000000
2529226423 2000 -0.640305 3.008910 125.616470 0.000000 0.000000 0.000000 1.463415 0.060976 -1.463415 0.015625 -0.006836 1.021484 0.000000 0.000000 0.000000 1.000000 1.000000 1.000000 1.000000
2529228424 2001 -0.640171 3.009276 125.609909 0.000000 0.000000 0.000000 1.646342 0.121951 -1.585366 0.016602 -0.002930 1.021973 0.000000 0.000000 0.000000 1.000000 1.000000 1.000000 1.000000
2529230424 2000 -0.640497 3.009093 125.603134 0.000000 0.000000 0.000000 1.829268 -0.060976 -1.707317 0.017578 -0.011230 1.022461 0.000000 0.000000 0.000000 1.000000 1.000000 1.000000 1.000000
2529232424 2000 -0.641586 3.008250 125.596794 0.000000 0.000000 0.000000 1.585366 -0.182927 -1.463415 0.021973 -0.012695 1.019043 0.000000 0.000000 0.000000 1.000000 1.000000 1.000000 1.000000
2529234424 2000 -0.642224 3.009540 125.589722 0.000000 0.000000 0.000000 1.646342 -0.121951 -1.829268 0.019531 0.005371 1.026855 0.000000 0.000000 0.000000 1.000000 1.000000 1.000000 1.000000
2529236425 2001 -0.641879 3.009776 125.583054 0.000000 0.000000 0.000000 1.768293 0.000000 -1.646342 0.012695 -0.006348 1.029785 0.000000 0.000000 0.000000 1.000000 1.000000 1.000000 1.000000
2529238425 2000 -0.641954 3.010945 125.576004 0.000000 0.000000 0.000000 1.829268 0.000000 -1.829268 0.016602 0.000977 1.024902 0.000000 0.000000 0.000000 1.000000 1.000000 1.000000 1.000000
2529240425 2000 -0.642773 3.009986 125.569489 0.000000 0.000000 0.000000 1.524390 0.182927 -1.585366 0.026367 -0.012695 1.023438 0.000000 0.000000 0.000000 1.000000 1.000000 1.000000 1.000000
2529242426 2001 -0.641967 3.010126 125.563454 0.000000 0.000000 0.000000 1.646342 0.365854 -1.341463 0.014648 -0.004883 1.014648 0.000000 0.000000 0.000000 1.000000 1.000000 1.000000 1.000000
2529244426 2000 -0.641748 3.010326 125.555801 0.000000 0.000000 0.000000 1.829268 0.000000 -2.134146 0.014160 -0.007812 1.019531 0.000000 0.000000 0.000000 1.000000 1.000000 1.000000 1.000000
2529246426 2000 -0.641831 3.010149 125.548889 0.000000 0.000000 0.000000 1.890244 0.060976 -1.768293 0.017578 -0.012207 1.017090 0.000000 0.000000 0.000000 1.000000 1.000000 1.000000 1.000000
2529248426 2000 -0.640793 3.009925 125.542595 0.000000 0.000000 0.000000 1.463415 0.121951 -1.463415 0.008301 -0.004883 1.014648 0.000000 0.000000 0.000000 1.000000 1.000000 1.000000 1.000000
2529250427 2001 -0.640289 3.009788 125.536446 0.000000 0.000000 0.000000 1.585366 0.365854 -1.402439 0.017578 -0.006348 1.026855 0.000000 0.000000 0.000000 1.000000 1.000000 1.000000 1.000000
2529252427 2000 -0.640958 3.009532 125.529137 0.000000 0.000000 0.000000 1.524390 -0.121951 -1.951220 0.019531 -0.006348 1.007812 0.000000 0.000000 0.000000 1.000000 1.000000 1.000000 1.000000
2529254427 2000 -0.641119 3.009376 125.522240 0.000000 0.000000 0.000000 1.463415 0.121951 -1.768293 0.019531 -0.004395 1.026367 0.000000 0.000000 0.000000 1.000000 1.000000 1.000000 1.000000
2529256427 2000 -0.640535 3.009511 125.515587 0.000000 0.000000 0.000000 1.829268 0.182927 -1.646342 0.013672 -0.008301 1.018555 0.000000 0.000000 0.000000 1.000000 1.000000 1.000000 1.000000
2529258427 2000 -0.640231 3.008876 125.508781 0.000000 0.000000 0.000000 1.463415 0.000000 -1.707317 0.013184 -0.008789 1.037109 0.000000 0.000000 0.000000 1.000000 1.000000 1.000000 1.000000
2529260428 2001 -0.640349 3.007817 125.502090 0.000000 0.000000 0.000000 1.463415 -0.182927 -1.646342 0.013672 -0.012695 1.039062 0.000000 0.000000 0.000000 1.000000 1.000000 1.000000 1.000000
2529262428 2000 -0.639730 3.007725 125.495560 0.000000 0.000000 0.000000 1.768293 0.121951 -1.585366 0.012207 -0.009277 1.020508 0.000000 0.000000 0.000000 1.000000 1.000000 1.000000 1.000000
2529264428 2000 -0.639584 3.008015 125.488525 0.000000 0.000000 0.000000 1.768293 0.121951 -1.829268 0.016602 -0.005859 1.015137 0.000000 0.000000 0.000000 1.000000 1.000000 1.000000 1.000000
2529266429 2001 -0.639935 3.008780 125.481842 0.000000 0.000000 0.000000 1.707317 0.000000 -1.646342 0.018555 -0.000488 1.006836 0.000000 0.000000 0.000000 1.000000 1.000000 1.000000 1.000000
2529268429 2000 -0.640242 3.008976 125.475067 0.000000 0.000000 0.000000 1.585366 0.182927 -1.707317 0.021973 -0.003418 1.030762 0.000000 0.000000 0.000000 1.000000 1.000000 1.000000 1.000000
2529270429 2000 -0.640132 3.008805 125.468529 0.000000 0.000000 0.000000 1.890244 0.000000 -1.585366 0.014648 -0.012207 1.023926 0.000000 0.000000 0.000000 1.000000 1.000000 1.000000 1.000000
2529272429 2000 -0.640211 3.007963 125.461754 0.000000 0.000000 0.000000 1.341463 0.182927 -1.707317 0.019531 -0.008301 1.011230 0.000000 0.000000 0.000000 1.000000 1.000000 1.000000 1.000000
2529274430 2001 -0.639595 3.006626 125.454964 0.000000 0.000000 0.000000 1.524390 0.060976 -1.707317 0.011230 -0.016113 1.019043 0.000000 0.000000 0.000000 1.000000 1.000000 1.000000 1.000000
2529276430 2000 -0.639207 3.006499 125.448189 0.000000 0.000000 0.000000 1.585366 0.243902 -1.707317 0.016602 -0.006348 1.021484 0.000000 0.000000 0.000000 1.000000 1.000000 1.000000 1.000000
2529278430 2000 -0.639107 3.006982 125.441261 0.000000 0.000000 0.000000 1.646342 -0.060976 -1.768293 0.013672 -0.001953 1.014160 0.000000 0.000000 0.000000 1.000000 1.000000 1.000000 1.000000
2529280430 2000 -0.638687 3.006924 125.434456 0.000000 0.000000 0.000000 1.646342 -0.121951 -1.707317 0.009766 -0.006836 1.025879 0.000000 0.000000 0.000000 1.000000 1.000000 1.000000 1.000000
2529282430 2000 -0.637809 3.005872 125.428062 0.000000 0.000000 0.000000 1.585366 0.365854 -1.524390 0.014160 -0.014648 1.020508 0.000000 0.000000 0.000000 1.000000 1.000000 1.000000 1.000000
2529284431 2001 -0.637707 3.005187 125.421165 0.000000 0.000000 0.000000 1.707317 0.121951 -1.768293 0.017090 -0.013672 1.026367 0.000000 0.000000 0.000000 1.000000 1.000000 1.000000 1.000000
2529286431 2000 -0.637302 3.005294 125.414032 0.000000 0.000000 0.000000 1.646342 0.304878 -1.890244 0.017578 -0.005371 1.015625 0.000000 0.000000 0.000000 1.000000 1.000000 1.000000 1.000000
2529288431 2000 -0.636416 3.005332 125.406754 0.000000 0.000000 0.000000 1.585366 0.000000 -1.951220 0.007812 -0.004883 1.008301 0.000000 0.000000 0.000000 1.000000 1.000000 1.000000 1.000000
2529290431 2000 -0.636965 3.004972 125.400322 0.000000 0.000000 0.000000 1.707317 -0.060976 -1.524390 0.019531 -0.010742 1.032227 0.000000 0.000000 0.000000 1.000000 1.000000 1.000000 1.000000
2529292432 2001 -0.636065 3.004499 125.392807 0.000000 0.000000 0.000000 1.463415 0.243902 -2.073171 0.012207 -0.007324 1.014648 0.000000 0.000000 0.000000 1.000000 1.000000 1.000000 1.000000
2529294432 2000 -0.635800 3.003936 125.385666 0.000000 0.000000 0.000000 1.768293 0.121951 -1.890244 0.015625 -0.013672 1.022461 0.000000 0.000000 0.000000 1.000000 1.000000 1.000000 1.000000
2529296432 2000 -0.635072 3.004424 125.378754 0.000000 0.000000 0.000000 1.646342 0.060976 -1.768293 0.010254 -0.001953 1.023438 0.000000 0.000000 0.000000 1.000000 1.000000 1.000000 1.000000
2529298432 2000 -0.635460 3.005128 125.371811 0.000000 0.000000 0.000000 1.890244 -0.060976 -1.768293 0.018066 -0.004395 1.020020 0.000000 0.000000 0.000000 1.000000 1.000000 1.000000 1.000000
2529300433 2001 -0.635761 3.004606 125.365257 0.000000 0.000000 0.000000 1.524390 -0.060976 -1.585366 0.017090 -0.008789 1.019043 0.000000 0.000000 0.000000 1.000000 1.000000 1.000000 1.000000
2529302433 2000 -0.635749 3.004731 125.358086 0.000000 0.000000 0.000000 1.463415 -0.060976 -1.890244 0.014648 -0.001953 1.023926 0.000000 0.000000 0.000000 1.000000 1.000000 1.000000 1.000000
2529304433 2000 -0.634755 3.005158 125.351524 0.000000 0.000000 0.000000 1.646342 0.121951 -1.585366 0.008789 -0.002441 1.025391 0.000000 0.000000 0.000000 1.000000 1.000000 1.000000 1.000000
2529306433 2000 -0.635280 3.003898 125.344902 0.000000 0.000000 0.000000 1.829268 0.121951 -1.646342 0.022461 -0.020996 1.020508 0.000000 0.000000 0.000000 1.000000 1.000000 1.000000 1.000000
2529308434 2001 -0.635031 3.003617 125.338219 0.000000 0.000000 0.000000 1.646342 0.000000 -1.646342 0.013184 -0.008789 1.010254 0.000000 0.000000 0.000000 1.000000 1.000000 1.000000 1.000000
2529310434 2000 -0.635291 3.004527 125.331413 0.000000 0.000000 0.000000 1.585366 0.121951 -1.707317 0.020020 0.002930 1.013672 0.000000 0.000000 0.000000 1.000000 1.000000 1.000000 1.000000
2529312434 2000 -0.636557 3.004364 125.324379 0.000000 0.000000 0.000000 1.646342 -0.060976 -1.829268 0.025879 -0.007812 1.014160 0.000000 0.000000 0.000000 1.000000 1.000000 1.000000 1.000000
2529314435 2001 -0.636026 3.003971 125.317223 0.000000 0.000000 0.000000 1.585366 0.121951 -1.890244 0.013184 -0.008789 1.017578 0.000000 0.000000 0.000000 1.000000 1.000000 1.000000 1.000000
2529316435 2000 -0.635553 3.004661 125.310287 0.000000 0.000000 0.000000 1.829268 -0.060976 -1.768293 0.010254 -0.003418 1.013184 0.000000 0.000000 0.000000 1.000000 1.000000 1.000000 1.000000
2529318435 2000 -0.635750 3.004613 125.303139 0.000000 0.000000 0.000000 1.646342 0.182927 -1.890244 0.020996 -0.006836 1.027344 0.000000 0.000000 0.000000 1.000000 1.000000 1.000000 1.000000
2529320436 2001 -0.635615 3.004264 125.296364 0.000000 0.000000 0.000000 1.524390 0.060976 -1.707317 0.015625 -0.007324 1.028809 0.000000 0.000000 0.000000 1.000000 1.000000 1.000000 1.000000
2529322436 2000 -0.635334 3.003500 125.289818 0.000000 0.000000 0.000000 1.402439 0.121951 -1.585366 0.015137 -0.008789 1.018066 0.000000 0.000000 0.000000 1.000000 1.000000 1.000000 1.000000
2529324436 2000 -0.635501 3.003948 125.282883 0.000000 0.000000 0.000000 1.707317 -0.060976 -1.768293 0.016113 -0.003418 1.022461 0.000000 0.000000 0.000000 1.000000 1.000000 1.000000 1.000000
2529326436 2000 -0.635644 3.004043 125.276093 0.000000 0.000000 0.000000 1.585366 0.060976 -1.707317 0.018066 -0.004395 1.024414 0.000000 0.000000 0.000000 1.000000 1.000000 1.000000 1.000000
2529328436 2000 -0.635857 3.004277 125.269196 0.000000 0.000000 0.000000 1.707317 0.182927 -1.768293 0.020996 -0.005371 1.025879 0.000000 0.000000 0.000000 1.000000 1.000000 1.000000 1.000000
2529330437 2001 -0.635790 3.004820 125.262131 0.000000 0.000000 0.000000 1.646342 -0.182927 -1.829268 0.011719 -0.001465 1.008301 0.000000 0.000000 0.000000 1.000000 1.000000 1.000000 1.000000
2529332437 2000 -0.634718 3.004724 125.255341 0.000000 0.000000 0.000000 1.707317 0.182927 -1.707317 0.009277 -0.008301 1.022461 0.000000 0.000000 0.000000 1.000000 1.000000 1.000000 1.000000
2529334437 2000 -0.634660 3.003238 125.248566 0.000000 0.000000 0.000000 1.280488 0.000000 -1.707317 0.015137 -0.013184 1.024902 0.000000 0.000000 0.000000 1.000000 1.000000 1.000000 1.000000
2529336437 2000 -0.634697 3.002953 125.241493 0.000000 0.000000 0.000000 1.585366 -0.182927 -1.829268 0.012695 -0.007812 1.014648 0.000000 0.000000 0.000000 1.000000 1.000000 1.000000 1.000000
2529338437 2000 -0.634386 3.003958 125.234726 0.000000 0.000000 0.000000 1.768293 0.243902 -1.707317 0.017090 0.000488 1.014648 0.000000 0.000000 0.000000 1.000000 1.000000 1.000000 1.000000
2529340438 2001 -0.634032 3.004293 125.228188 0.000000 0.000000 0.000000 1.707317 0.182927 -1.585366 0.015625 -0.004395 1.022949 0.000000 0.000000 0.000000 1.000000 1.000000 1.000000 1.000000
2529342438 2000 -0.633442 3.004281 125.221413 0.000000 0.000000 0.000000 1.585366 0.182927 -1.707317 0.013672 -0.005371 1.028320 0.000000 0.000000 0.000000 1.000000 1.000000 1.000000 1.000000
2529344438 2000 -0.633151 3.004210 125.214363 0.000000 0.000000 0.000000 1.585366 0.121951 -1.829268 0.015137 -0.005859 1.011230 0.000000 0.000000 0.000000 1.000000 1.000000 1.000000 1.000000
2529346439 2001 -0.633219 3.005025 125.207436 0.000000 0.000000 0.000000 1.646342 0.000000 -1.768293 0.016113 0.000977 1.011719 0.000000 0.000000 0.000000 1.000000 1.000000 1.000000 1.000000
2529348439 2000 -0.633034 3.005589 125.200645 0.000000 0.000000 0.000000 1.524390 0.121951 -1.707317 0.016113 0.000977 1.020996 0.000000 0.000000 0.000000 1.000000 1.000000 1.000000 1.000000
2529350439 2000 -0.633083 3.005878 125.194321 0.000000 0.000000 0.000000 1.524390 -0.060976 -1.463415 0.014648 -0.001465 1.017090 0.000000 0.000000 0.000000 1.000000 1.000000 1.000000 1.000000
2529352439 2000 -0.633248 3.006575 125.187775 0.000000 0.000000 0.000000 1.890244 0.060976 -1.585366 0.018066 -0.004395 1.021973 0.000000 0.000000 0.000000 1.000000 1.000000 1.000000 1.000000
2529354439 2000 -0.634014 3.007491 125.180840 0.000000 0.000000 0.000000 1.646342 -0.060976 -1.768293 0.021484 0.001953 1.021973 0.000000 0.000000 0.000000 1.000000 1.000000 1.000000 1.000000
2529356440 2001 -0.634817 3.009008 125.173302 0.000000 0.000000 0.000000 1.646342 0.121951 -2.073171 0.025391 0.007324 1.021484 0.000000 0.000000 0.000000 1.000000 1.000000 1.000000 1.000000
2529358440 2000 -0.634217 3.009921 125.166122 0.000000 0.000000 0.000000 1.890244 0.000000 -1.890244 0.010254 -0.002441 1.007324 0.000000 0.000000 0.000000 1.000000 1.000000 1.000000 1.000000
2529360440 2000 -0.634277 3.010080 125.159554 0.000000 0.000000 0.000000 1.707317 -0.182927 -1.585366 0.012695 -0.005859 1.017090 0.000000 0.000000 0.000000 1.000000 1.000000 1.000000 1.000000
2529362441 2001 -0.635805 3.009409 125.153000 0.000000 0.000000 0.000000 1.646342 -0.121951 -1.585366 0.026855 -0.012207 1.012695 0.000000 0.000000 0.000000 1.000000 1.000000 1.000000 1.000000
2529364441 2000 -0.634908 3.009602 125.146072 0.000000 0.000000 0.000000 1.585366 0.060976 -1.768293 0.008789 -0.003418 1.029785 0.000000 0.000000 0.000000 1.000000 1.000000 1.000000 1.000000
2529366441 2000 -0.635026 3.009507 125.139267 0.000000 0.000000 0.000000 1.524390 0.000000 -1.707317 0.016602 -0.004883 1.015625 0.000000 0.000000 0.000000 1.000000 1.000000 1.000000 1.000000
2529368442 2001 -0.634746 3.009359 125.132370 0.000000 0.000000 0.000000 1.524390 0.060976 -1.768293 0.014160 -0.005371 1.014160 0.000000 0.000000 0.000000 1.000000 1.000000 1.000000 1.000000
2529370442 2000 -0.635535 3.009391 125.125214 0.000000 0.000000 0.000000 1.585366 0.121951 -1.890244 0.024902 -0.004883 1.012695 0.000000 0.000000 0.000000 1.000000 1.000000 1.000000 1.000000
2529372442 2000 -0.634886 3.010128 125.118179 0.000000 0.000000 0.000000 1.829268 0.121951 -1.829268 0.012207 -0.002930 1.030273 0.000000 0.000000 0.000000 1.000000 1.000000 1.000000 1.000000
2529374442 2000 -0.634458 3.009894 125.111542 0.000000 0.000000 0.000000 1.646342 0.304878 -1.646342 0.017090 -0.008301 1.015137 0.000000 0.000000 0.000000 1.000000 1.000000 1.000000 1.000000
2529376442 2000 -0.634330 3.010342 125.104721 0.000000 0.000000 0.000000 1.524390 -0.121951 -1.707317 0.012207 0.000000 1.016113 0.000000 0.000000 0.000000 1.000000 1.000000 1.000000 1.000000
2529378443 2001 -0.634581 3.010560 125.098549 0.000000 0.000000 0.000000 1.768293 0.121951 -1.402439 0.019531 -0.006348 1.007812 0.000000 0.000000 0.000000 1.000000 1.000000 1.000000 1.000000
2529380443 2000 -0.635024 3.010669 125.091484 0.000000 0.000000 0.000000 1.707317 -0.060976 -1.829268 0.018555 -0.006348 1.017090 0.000000 0.000000 0.000000 1.000000 1.000000 1.000000 1.000000
2529382443 2000 -0.634415 3.010198 125.084450 0.000000 0.000000 0.000000 1.524390 0.000000 -1.829268 0.010254 -0.008301 1.021484 0.000000 0.000000 0.000000 1.000000 1.000000 1.000000 1.000000
2529384443 2000 -0.634300 3.011565 125.077637 0.000000 0.000000 0.000000 2.012195 0.000000 -1.707317 0.014648 -0.000488 1.025879 0.000000 0.000000 0.000000 1.000000 1.000000 1.000000 1.000000
2529386444 2001 -0.635235 3.011161 125.071457 0.000000 0.000000 0.000000 1.829268 0.000000 -1.402439 0.023926 -0.013184 1.028809 0.000000 0.000000 0.000000 1.000000 1.000000 1.000000 1.000000
2529388444 2000 -0.635870 3.010585 125.064804 0.000000 0.000000 0.000000 1.524390 0.243902 -1.646342 0.025879 -0.009277 1.029297 0.000000 0.000000 0.000000 1.000000 1.000000 1.000000 1.000000
2529390444 2000 -0.636484 3.011353 125.058250 0.000000 0.000000 0.000000 1.768293 0.000000 -1.585366 0.021484 -0.001465 1.041504 0.000000 0.000000 0.000000 1.000000 1.000000 1.000000 1.000000
2529392444 2000 -0.637205 3.011308 125.051460 0.000000 0.000000 0.000000 1.707317 0.000000 -1.707317 0.022461 -0.007812 1.035645 0.000000 0.000000 0.000000 1.000000 1.000000 1.000000 1.000000
2529394445 2001 -0.637724 3.011577 125.044647 0.000000 0.000000 0.000000 1.707317 -0.121951 -1.707317 0.018066 -0.004883 1.016602 0.000000 0.000000 0.000000 1.000000 1.000000 1.000000 1.000000
2529396445 2000 -0.637613 3.011051 125.038208 0.000000 0.000000 0.000000 1.524390 0.000000 -1.524390 0.014648 -0.008789 1.031250 0.000000 0.000000 0.000000 1.000000 1.000000 1.000000 1.000000
2529398445 2000 -0.637332 3.011361 125.031174 0.000000 0.000000 0.000000 1.890244 0.000000 -1.829268 0.013184 -0.007812 1.015625 0.000000 0.000000 0.000000 1.000000 1.000000 1.000000 1.000000
2529400445 2000 -0.638368 3.011205 125.024605 0.000000 0.000000 0.000000 1.524390 -0.121951 -1.585366 0.022461 -0.005371 1.010254 0.000000 0.000000 0.000000 1.000000 1.000000 1.000000 1.000000
2529402446 2001 -0.638695 3.012142 125.017570 0.000000 0.000000 0.000000 1.768293 0.182927 -1.829268 0.021973 0.000000 1.018066 0.000000 0.000000 0.000000 1.000000 1.000000 1.000000 1.000000
2529404446 2000 -0.638419 3.011641 125.011055 0.000000 0.000000 0.000000 1.646342 0.243902 -1.585366 0.017578 -0.010742 1.026855 0.000000 0.000000 0.000000 1.000000 1.000000 1.000000 1.000000
2529406446 2000 -0.638608 3.012092 125.003639 0.000000 0.000000 0.000000 1.524390 -0.060976 -2.012195 0.016602 0.000000 1.021973 0.000000 0.000000 0.000000 1.000000 1.000000 1.000000 1.000000
2529408446 2000 -0.638541 3.011825 124.997459 0.000000 0.000000 0.000000 1.524390 0.182927 -1.402439 0.018066 -0.006348 1.020020 0.000000 0.000000 0.000000 1.000000 1.000000 1.000000 1.000000
2529410447 2001 -0.639840 3.011822 124.990547 0.000000 0.000000 0.000000 1.707317 0.060976 -1.768293 0.028320 -0.007324 1.012695 0.000000 0.000000 0.000000 1.000000 1.000000 1.000000 1.000000
2529412447 2000 -0.640358 3.011928 124.983635 0.000000 0.000000 0.000000 1.707317 0.060976 -1.768293 0.021484 -0.006348 1.018555 0.000000 0.000000 0.000000 1.000000 1.000000 1.000000 1.000000
2529414447 2000 -0.639803 3.012584 124.977219 0.000000 0.000000 0.000000 1.768293 0.182927 -1.524390 0.013672 -0.002441 1.008301 0.000000 0.000000 0.000000 1.000000 1.000000 1.000000 1.000000
2529416447 2000 -0.639441 3.012690 124.970535 0.000000 0.000000 0.000000 1.707317 -0.121951 -1.646342 0.010254 -0.006348 1.026855 0.000000 0.000000 0.000000 1.000000 1.000000 1.000000 1.000000
2529418447 2000 -0.638587 3.012365 124.963379 0.000000 0.000000 0.000000 1.707317 0.060976 -1.890244 0.009277 -0.010254 1.020996 0.000000 0.000000 0.000000 1.000000 1.000000 1.000000 1.000000
2529420448 2001 -0.638883 3.012692 124.956360 0.000000 0.000000 0.000000 1.707317 0.000000 -1.829268 0.018555 -0.004395 1.025391 0.000000 0.000000 0.000000 1.000000 1.000000 1.000000 1.000000
2529422448 2000 -0.637965 3.013447 124.949310 0.000000 0.000000 0.000000 1.707317 0.121951 -1.829268 0.009766 -0.000488 1.023926 0.000000 0.000000 0.000000 1.000000 1.000000 1.000000 1.000000
2529424449 2001 -0.637957 3.013846 124.943001 0.000000 0.000000 0.000000 1.829268 0.060976 -1.463415 0.016602 -0.005859 1.028809 0.000000 0.000000 0.000000 1.000000 1.000000 1.000000 1.000000
2529426449 2000 -0.637488 3.014380 124.936195 0.000000 0.000000 0.000000 1.707317 -0.060976 -1.707317 0.010254 -0.002441 1.010742 0.000000 0.000000 0.000000 1.000000 1.000000 1.000000 1.000000
2529428449 2000 -0.637456 3.014369 124.929512 0.000000 0.000000 0.000000 1.707317 -0.060976 -1.646342 0.014160 -0.007324 1.016113 0.000000 0.000000 0.000000 1.000000 1.000000 1.000000 1.000000
2529430449 2000 -0.636865 3.014007 124.922974 0.000000 0.000000 0.000000 1.585366 0.243902 -1.585366 0.014648 -0.008301 1.022949 0.000000 0.000000 0.000000 1.000000 1.000000 1.000000 1.000000
2529432449 2000 -0.637016 3.014446 124.916153 0.000000 0.000000 0.000000 1.768293 -0.182927 -1.707317 0.013672 -0.004395 1.016113 0.000000 0.000000 0.000000 1.000000 1.000000 1.000000 1.000000
2529434450 2001 -0.637545 3.014956 124.909103 0.000000 0.000000 0.000000 1.585366 0.000000 -1.829268 0.020508 -0.000488 1.019043 0.000000 0.000000 0.000000 1.000000 1.000000 1.000000 1.000000
2529436450 2000 -0.637826 3.014715 124.902580 0.000000 0.000000 0.000000 1.829268 0.121951 -1.585366 0.020508 -0.011719 1.032715 0.000000 0.000000 0.000000 1.000000 1.000000 1.000000 1.000000
2529438450 2000 -0.638178 3.016222 124.896004 0.000000 0.000000 0.000000 1.951220 -0.060976 -1.585366 0.017578 0.001953 1.016602 0.000000 0.000000 0.000000 1.000000 1.000000 1.000000 1.000000
2529440450 2000 -0.638330 3.015832 124.889366 0.000000 0.000000 0.000000 1.768293 0.182927 -1.646342 0.020020 -0.011719 1.007812 0.000000 0.000000 0.000000 1.000000 1.000000 1.000000 1.000000
2529442451 2001 -0.638495 3.015864 124.882698 0.000000 0.000000 0.000000 1.646342 0.182927 -1.646342 0.020508 -0.005859 1.025879 0.000000 0.000000 0.000000 1.000000 1.000000 1.000000 1.000000
2529444451 2000 -0.639496 3.016112 124.875992 0.000000 0.000000 0.000000 1.646342 -0.243902 -1.646342 0.020508 -0.003906 1.033203 0.000000 0.000000 0.000000 1.000000 1.000000 1.000000 1.000000
2529446451 2000 -0.638804 3.016544 124.869354 0.000000 0.000000 0.000000 1.951220 0.304878 -1.646342 0.015137 -0.007812 1.037109 0.000000 0.000000 0.000000 1.000000 1.000000 1.000000 1.000000
2529448451 2000 -0.639037 3.016680 124.862686 0.000000 0.000000 0.000000 1.402439 0.182927 -1.646342 0.020996 -0.000488 1.019043 0.000000 0.000000 0.000000 1.000000 1.000000 1.000000 1.000000
2529450452 2001 -0.639089 3.016499 124.855789 0.000000 0.000000 0.000000 1.646342 0.121951 -1.768293 0.018555 -0.007812 1.028809 0.000000 0.000000 0.000000 1.000000 1.000000 1.000000 1.000000
2529452452 2000 -0.639081 3.016243 124.849236 0.000000 0.000000 0.000000 1.646342 -0.060976 -1.585366 0.014160 -0.008301 1.002441 0.000000 0.000000 0.000000 1.000000 1.000000 1.000000 1.000000
2529454452 2000 -0.638590 3.016254 124.842705 0.000000 0.000000 0.000000 1.585366 0.304878 -1.585366 0.016602 -0.004883 1.018066 0.000000 0.000000 0.000000 1.000000 1.000000 1.000000 1.000000
2529456452 2000 -0.639302 3.016201 124.835793 0.000000 0.000000 0.000000 1.707317 0.000000 -1.768293 0.022461 -0.007812 1.034668 0.000000 0.000000 0.000000 1.000000 1.000000 1.000000 1.000000
2529458453 2001 -0.639048 3.016144 124.829231 0.000000 0.000000 0.000000 1.524390 0.000000 -1.585366 0.013184 -0.004395 1.011719 0.000000 0.000000 0.000000 1.000000 1.000000 1.000000 1.000000
2529460453 2000 -0.638142 3.016388 124.822578 0.000000 0.000000 0.000000 1.646342 0.182927 -1.646342 0.010742 -0.003906 1.017578 0.000000 0.000000 0.000000 1.000000 1.000000 1.000000 1.000000
2529462453 2000 -0.638693 3.016943 124.816132 0.000000 0.000000 0.000000 1.341463 0.060976 -1.524390 0.021484 0.004395 1.016602 0.000000 0.000000 0.000000 1.000000 1.000000 1.000000 1.000000
2529464453 2000 -0.639043 3.016927 124.809494 0.000000 0.000000 0.000000 1.707317 0.182927 -1.646342 0.021973 -0.007324 1.015625 0.000000 0.000000 0.000000 1.000000 1.000000 1.000000 1.000000
2529466454 2001 -0.640007 3.016863 124.802925 0.000000 0.000000 0.000000 1.707317 0.000000 -1.585366 0.024414 -0.007812 1.026855 0.000000 0.000000 0.000000 1.000000 1.000000 1.000000 1.000000
2529468454 2000 -0.639890 3.016198 124.796295 0.000000 0.000000 0.000000 1.463415 0.304878 -1.646342 0.020020 -0.008789 1.017578 0.000000 0.000000 0.000000 1.000000 1.000000 1.000000 1.000000
2529470454 2000 -0.639801 3.016380 124.790138 0.000000 0.000000 0.000000 1.646342 0.365854 -1.402439 0.020996 -0.004395 1.010742 0.000000 0.000000 0.000000 1.000000 1.000000 1.000000 1.000000
2529472454 2000 -0.640099 3.016885 124.783073 0.000000 0.000000 0.000000 1.585366 -0.060976 -1.829268 0.017578 -0.000488 1.029785 0.000000 0.000000 0.000000 1.000000 1.000000 1.000000 1.000000
2529474454 2000 -0.639500 3.016343 124.775948 0.000000 0.000000 0.000000 1.463415 0.060976 -1.890244 0.011719 -0.007812 1.032227 0.000000 0.000000 0.000000 1.000000 1.000000 1.000000 1.000000
2529476455 2001 -0.638536 3.016212 124.768677 0.000000 0.000000 0.000000 1.646342 0.304878 -1.951220 0.012695 -0.007324 1.017090 0.000000 0.000000 0.000000 1.000000 1.000000 1.000000 1.000000
2529478455 2000 -0.638521 3.016080 124.761642 0.000000 0.000000 0.000000 1.646342 0.000000 -1.829268 0.015625 -0.007324 1.018066 0.000000 0.000000 0.000000 1.000000 1.000000 1.000000 1.000000
2529480455 2000 -0.638483 3.016202 124.755455 0.000000 0.000000 0.000000 1.829268 0.000000 -1.402439 0.015137 -0.008301 1.025879 0.000000 0.000000 0.000000 1.000000 1.000000 1.000000 1.000000
2529482456 2001 -0.638351 3.017075 124.748268 0.000000 0.000000 0.000000 1.768293 -0.060976 -1.890244 0.013672 -0.000488 1.027832 0.000000 0.000000 0.000000 1.000000 1.000000 1.000000 1.000000
2529484456 2000 -0.639153 3.016845 124.741234 0.000000 0.000000 0.000000 1.646342 0.060976 -1.829268 0.024414 -0.008301 1.033203 0.000000 0.000000 0.000000 1.000000 1.000000 1.000000 1.000000
2529486456 2000 -0.640423 3.017491 124.734772 0.000000 0.000000 0.000000 1.768293 -0.243902 -1.524390 0.022461 -0.002441 1.014648 0.000000 0.000000 0.000000 1.000000 1.000000 1.000000 1.000000
2529488456 2000 -0.640265 3.017948 124.728340 0.000000 0.000000 0.000000 1.646342 0.000000 -1.524390 0.014160 -0.001953 1.023438 0.000000 0.000000 0.000000 1.000000 1.000000 1.000000 1.000000
2529490457 2001 -0.639807 3.016902 124.721085 0.000000 0.000000 0.000000 1.463415 0.243902 -1.951220 0.016113 -0.012207 1.014160 0.000000 0.000000 0.000000 1.000000 1.000000 1.000000 1.000000
2529492457 2000 -0.640422 3.017064 124.714531 0.000000 0.000000 0.000000 1.768293 -0.060976 -1.585366 0.020020 -0.006836 1.019531 0.000000 0.000000 0.000000 1.000000 1.000000 1.000000 1.000000
2529494457 2000 -0.639709 3.017530 124.707260 0.000000 0.000000 0.000000 1.646342 0.304878 -1.951220 0.015137 -0.001953 1.028809 0.000000 0.000000 0.000000 1.000000 1.000000 1.000000 1.000000
2529496458 2001 -0.640028 3.017272 124.700455 0.000000 0.000000 0.000000 1.585366 0.000000 -1.707317 0.018555 -0.007324 1.019043 0.000000 0.000000 0.000000 1.000000 1.000000 1.000000 1.000000
2529498458 2000 -0.640291 3.018166 124.693420 0.000000 0.000000 0.000000 1.646342 0.121951 -1.829268 0.020508 0.001953 1.025879 0.000000 0.000000 0.000000 1.000000 1.000000 1.000000 1.000000
2529500458 2000 -0.639784 3.018316 124.686371 0.000000 0.000000 0.000000 1.463415 -0.060976 -1.829268 0.010254 -0.001465 1.028809 0.000000 0.000000 0.000000 1.000000 1.000000 1.000000 1.000000
2529502458 2000 -0.640070 3.018303 124.679459 0.000000 0.000000 0.000000 1.463415 0.060976 -1.768293 0.019531 -0.002930 1.024902 0.000000 0.000000 0.000000 1.000000 1.000000 1.000000 1.000000
2529504459 2001 -0.640343 3.018180 124.672539 0.000000 0.000000 0.000000 1.707317 -0.060976 -1.768293 0.017090 -0.008301 1.018066 0.000000 0.000000 0.000000 1.000000 1.000000 1.000000 1.000000
2529506459 2000 -0.640579 3.018990 124.665749 0.000000 0.000000 0.000000 2.012195 0.182927 -1.707317 0.020996 -0.005371 1.013672 0.000000 0.000000 0.000000 1.000000 1.000000 1.000000 1.000000
2529508459 2000 -0.640944 3.018792 124.658821 0.000000 0.000000 0.000000 1.585366 -0.121951 -1.768293 0.017090 -0.006836 1.033203 0.000000 0.000000 0.000000 1.000000 1.000000 1.000000 1.000000
2529510459 2000 -0.641377 3.019384 124.652016 0.000000 0.000000 0.000000 1.524390 0.121951 -1.707317 0.021973 0.001465 1.027344 0.000000 0.000000 0.000000 1.000000 1.000000 1.000000 1.000000
2529512459 2000 -0.642021 3.018122 124.645363 0.000000 0.000000 0.000000 1.463415 0.000000 -1.646342 0.021484 -0.014160 1.020996 0.000000 0.000000 0.000000 1.000000 1.000000 1.000000 1.000000
2529514460 2001 -0.641957 3.018558 124.638702 0.000000 0.000000 0.000000 1.768293 0.121951 -1.646342 0.017578 -0.004395 1.036133 0.000000 0.000000 0.000000 1.000000 1.000000 1.000000 1.000000
2529516460 2000 -0.642245 3.017584 124.631897 0.000000 0.000000 0.000000 1.585366 -0.060976 -1.707317 0.017090 -0.013672 1.011230 0.000000 0.000000 0.000000 1.000000 1.000000 1.000000 1.000000
2529518460 2000 -0.642063 3.017479 124.625732 0.000000 0.000000 0.000000 1.585366 0.243902 -1.402439 0.018066 -0.005859 1.012207 0.000000 0.000000 0.000000 1.000000 1.000000 1.000000 1.000000
2529520460 2000 -0.642597 3.017926 124.619057 0.000000 0.000000 0.000000 1.829268 0.000000 -1.646342 0.020508 -0.005371 1.020996 0.000000 0.000000 0.000000 1.000000 1.000000 1.000000 1.000000
2529522461 2001 -0.643049 3.017900 124.612236 0.000000 0.000000 0.000000 1.646342 -0.182927 -1.707317 0.016602 -0.006348 1.023926 0.000000 0.000000 0.000000 1.000000 1.000000 1.000000 1.000000
2529524461 2000 -0.643320 3.017754 124.605217 0.000000 0.000000 0.000000 1.585366 0.121951 -1.829268 0.020508 -0.006348 1.020020 0.000000 0.000000 0.000000 1.000000 1.000000 1.000000 1.000000
2529526461 2000 -0.642807 3.017928 124.599289 0.000000 0.000000 0.000000 1.646342 0.121951 -1.280488 0.012695 -0.004395 1.001465 0.000000 0.000000 0.000000 1.000000 1.000000 1.000000 1.000000
2529528461 2000 -0.642785 3.017064 124.592377 0.000000 0.000000 0.000000 1.524390 0.000000 -1.768293 0.015625 -0.011719 1.020508 0.000000 0.000000 0.000000 1.000000 1.000000 1.000000 1.000000
2529530462 2001 -0.643276 3.017179 124.585236 0.000000 0.000000 0.000000 1.768293 0.060976 -1.890244 0.021484 -0.007324 1.021973 0.000000 0.000000 0.000000 1.000000 1.000000 1.000000 1.000000
2529532462 2000 -0.642819 3.017004 124.578568 0.000000 0.000000 0.000000 1.463415 0.243902 -1.646342 0.016113 -0.004395 1.028809 0.000000 0.000000 0.000000 1.000000 1.000000 1.000000 1.000000
2529534462 2000 -0.642903 3.017577 124.571533 0.000000 0.000000 0.000000 1.646342 0.000000 -1.829268 0.016602 -0.000977 1.018066 0.000000 0.000000 0.000000 1.000000 1.000000 1.000000 1.000000
2529536462 2000 -0.642573 3.017089 124.564972 0.000000 0.000000 0.000000 1.524390 0.000000 -1.585366 0.012695 -0.008301 1.022461 0.000000 0.000000 0.000000 1.000000 1.000000 1.000000 1.000000
2529538463 2001 -0.643267 3.017769 124.557922 0.000000 0.000000 0.000000 1.646342 0.121951 -1.829268 0.024414 0.000000 1.024414 0.000000 0.000000 0.000000 1.000000 1.000000 1.000000 1.000000
2529540463 2000 -0.642688 3.017639 124.551369 0.000000 0.000000 0.000000 1.707317 -0.060976 -1.585366 0.009277 -0.008301 1.012695 0.000000 0.000000 0.000000 1.000000 1.000000 1.000000 1.000000
2529542463 2000 -0.642822 3.017860 124.544594 0.000000 0.000000 0.000000 1.768293 0.000000 -1.707317 0.017090 -0.006348 1.028320 0.000000 0.000000 0.000000 1.000000 1.000000 1.000000 1.000000
2529544464 2001 -0.642524 3.018150 124.538635 0.000000 0.000000 0.000000 1.402439 0.060976 -1.280488 0.013672 0.000977 1.012207 0.000000 0.000000 0.000000 1.000000 1.000000 1.000000 1.000000
2529546464 2000 -0.642034 3.018726 124.532204 0.000000 0.000000 0.000000 1.707317 0.000000 -1.524390 0.011230 -0.001953 1.025879 0.000000 0.000000 0.000000 1.000000 1.000000 1.000000 1.000000
2529548464 2000 -0.642573 3.018863 124.525276 0.000000 0.000000 0.000000 1.646342 -0.121951 -1.768293 0.018555 -0.004883 1.025391 0.000000 0.000000 0.000000 1.000000 1.000000 1.000000 1.000000
2529550464 2000 -0.643067 3.019554 124.518341 0.000000 0.000000 0.000000 1.707317 -0.060976 -1.768293 0.019043 -0.000977 1.013184 0.000000 0.000000 0.000000 1.000000 1.000000 1.000000 1.000000
2529552465 2001 -0.642968 3.018449 124.511414 0.000000 0.000000 0.000000 1.768293 -0.060976 -1.768293 0.013672 -0.018066 1.008789 0.000000 0.000000 0.000000 1.000000 1.000000 1.000000 1.000000
2529554465 2000 -0.643079 3.018861 124.504486 0.000000 0.000000 0.000000 1.890244 -0.182927 -1.768293 0.013672 -0.006836 1.030273 0.000000 0.000000 0.000000 1.000000 1.000000 1.000000 1.000000
2529556465 2000 -0.643080 3.018668 124.497696 0.000000 0.000000 0.000000 1.646342 0.182927 -1.707317 0.019043 -0.007812 1.019531 0.000000 0.000000 0.000000 1.000000 1.000000 1.000000 1.000000
2529558465 2000 -0.643029 3.018659 124.491547 0.000000 0.000000 0.000000 1.524390 0.121951 -1.402439 0.017090 -0.003906 1.012695 0.000000 0.000000 0.000000 1.000000 1.000000 1.000000 1.000000
2529560465 2000 -0.642410 3.019443 124.484756 0.000000 0.000000 0.000000 1.890244 0.243902 -1.707317 0.014648 -0.003418 1.025879 0.000000 0.000000 0.000000 1.000000 1.000000 1.000000 1.000000
2529562466 2001 -0.642758 3.018794 124.477631 0.000000 0.000000 0.000000 1.768293 0.243902 -1.890244 0.023438 -0.014160 1.020020 0.000000 0.000000 0.000000 1.000000 1.000000 1.000000 1.000000
2529564466 2000 -0.642508 3.018984 124.470825 0.000000 0.000000 0.000000 1.646342 0.000000 -1.707317 0.013672 -0.004395 1.031738 0.000000 0.000000 0.000000 1.000000 1.000000 1.000000 1.000000
2529566466 2000 -0.642854 3.019974 124.463654 0.000000 0.000000 0.000000 1.829268 0.000000 -1.890244 0.019043 -0.000488 1.020020 0.000000 0.000000 0.000000 1.000000 1.000000 1.000000 1.000000
2529568467 2001 -0.643301 3.019775 124.456482 0.000000 0.000000 0.000000 1.585366 -0.060976 -1.890244 0.019043 -0.006836 1.029785 0.000000 0.000000 0.000000 1.000000 1.000000 1.000000 1.000000
2529570467 2000 -0.642976 3.020239 124.450203 0.000000 0.000000 0.000000 1.707317 0.304878 -1.463415 0.018066 -0.002930 1.018555 0.000000 0.000000 0.000000 1.000000 1.000000 1.000000 1.000000
2529572467 2000 -0.642985 3.020798 124.443794 0.000000 0.000000 0.000000 1.646342 0.182927 -1.524390 0.019043 -0.000977 1.024902 0.000000 0.000000 0.000000 1.000000 1.000000 1.000000 1.000000
2529574467 2000 -0.643665 3.020998 124.436760 0.000000 0.000000 0.000000 1.707317 0.000000 -1.829268 0.021973 -0.005371 1.018555 0.000000 0.000000 0.000000 1.000000 1.000000 1.000000 1.000000
2529576467 2000 -0.643731 3.020985 124.430435 0.000000 0.000000 0.000000 1.524390 0.000000 -1.463415 0.016113 -0.003906 1.018555 0.000000 0.000000 0.000000 1.000000 1.000000 1.000000 1.000000
2529578467 2000 -0.643487 3.021460 124.424110 0.000000 0.000000 0.000000 1.768293 -0.060976 -1.463415 0.012207 -0.003906 1.015625 0.000000 0.000000 0.000000 1.000000 1.000000 1.000000 1.000000
2529580468 2001 -0.644236 3.021280 124.417595 0.000000 0.000000 0.000000 1.707317 0.182927 -1.585366 0.025879 -0.008789 1.027832 0.000000 0.000000 0.000000 1.000000 1.000000 1.000000 1.000000
2529582468 2000 -0.643629 3.021845 124.410561 0.000000 0.000000 0.000000 1.646342 0.182927 -1.829268 0.013672 -0.000977 1.015137 0.000000 0.000000 0.000000 1.000000 1.000000 1.000000 1.000000
2529584468 2000 -0.644076 3.022169 124.404381 0.000000 0.000000 0.000000 1.585366 0.121951 -1.402439 0.021973 -0.001953 1.032715 0.000000 0.000000 0.000000 1.000000 1.000000 1.000000 1.000000
2529586469 2001 -0.643816 3.022607 124.397964 0.000000 0.000000 0.000000 1.829268 0.121951 -1.524390 0.015625 -0.005371 1.031250 0.000000 0.000000 0.000000 1.000000 1.000000 1.000000 1.000000
2529588469 2000 -0.644009 3.022519 124.391403 0.000000 0.000000 0.000000 1.646342 0.000000 -1.585366 0.017578 -0.006836 1.030273 0.000000 0.000000 0.000000 1.000000 1.000000 1.000000 1.000000
2529590469 2000 -0.643819 3.021726 124.384003 0.000000 0.000000 0.000000 1.402439 -0.060976 -2.012195 0.013184 -0.008789 1.013672 0.000000 0.000000 0.000000 1.000000 1.000000 1.000000 1.000000
2529592470 2001 -0.643731 3.021965 124.376976 0.000000 0.000000 0.000000 1.646342 0.243902 -1.829268 0.019531 -0.003906 1.022461 0.000000 0.000000 0.000000 1.000000 1.000000 1.000000 1.000000
2529594470 2000 -0.643847 3.022260 124.370079 0.000000 0.000000 0.000000 1.890244 0.060976 -1.768293 0.018066 -0.007812 1.025391 0.000000 0.000000 0.000000 1.000000 1.000000 1.000000 1.000000
2529596470 2000 -0.643859 3.022229 124.362907 0.000000 0.000000 0.000000 1.646342 0.000000 -1.890244 0.016113 -0.006348 1.023438 0.000000 0.000000 0.000000 1.000000 1.000000 1.000000 1.000000
2529598470 2000 -0.645263 3.022205 124.356323 0.000000 0.000000 0.000000 1.707317 -0.243902 -1.585366 0.023926 -0.007324 1.020020 0.000000 0.000000 0.000000 1.000000 1.000000 1.000000 1.000000
2529600471 2001 -0.644907 3.021284 124.349442 0.000000 0.000000 0.000000 1.585366 0.060976 -1.768293 0.013672 -0.013184 1.014160 0.000000 0.000000 0.000000 1.000000 1.000000 1.000000 1.000000
2529602471 2000 -0.645638 3.021710 124.342613 0.000000 0.000000 0.000000 1.524390 0.000000 -1.707317 0.022461 0.000000 1.023926 0.000000 0.000000 0.000000 1.000000 1.000000 1.000000 1.000000
2529604471 2000 -0.644955 3.022839 124.335724 0.000000 0.000000 0.000000 1.768293 0.243902 -1.768293 0.014160 0.001953 1.023926 0.000000 0.000000 0.000000 1.000000 1.000000 1.000000 1.000000
2529606471 2000 -0.645242 3.022253 124.329170 0.000000 0.000000 0.000000 1.646342 -0.060976 -1.585366 0.017090 -0.011230 1.014648 0.000000 0.000000 0.000000 1.000000 1.000000 1.000000 1.000000
2529608471 2000 -0.645718 3.022255 124.322380 0.000000 0.000000 0.000000 1.585366 0.060976 -1.707317 0.020996 -0.004883 1.010742 0.000000 0.000000 0.000000 1.000000 1.000000 1.000000 1.000000
2529610472 2001 -0.646421 3.022533 124.315453 0.000000 0.000000 0.000000 1.585366 0.060976 -1.768293 0.023438 -0.002441 1.026367 0.000000 0.000000 0.000000 1.000000 1.000000 1.000000 1.000000
2529612472 2000 -0.646892 3.023361 124.308403 0.000000 0.000000 0.000000 1.646342 0.000000 -1.829268 0.020508 0.001465 1.036621 0.000000 0.000000 0.000000 1.000000 1.000000 1.000000 1.000000
2529614472 2000 -0.646628 3.023144 124.301994 0.000000 0.000000 0.000000 1.585366 0.182927 -1.524390 0.016602 -0.006836 1.021973 0.000000 0.000000 0.000000 1.000000 1.000000 1.000000 1.000000
2529616472 2000 -0.647045 3.024340 124.295059 0.000000 0.000000 0.000000 1.829268 -0.060976 -1.768293 0.018555 0.001465 1.020020 0.000000 0.000000 0.000000 1.000000 1.000000 1.000000 1.000000
2529618473 2001 -0.647111 3.024569 124.288391 0.000000 0.000000 0.000000 1.646342 0.121951 -1.646342 0.018555 -0.003906 1.019043 0.000000 0.000000 0.000000 1.000000 1.000000 1.000000 1.000000
2529620473 2000 -0.648107 3.024553 124.281586 0.000000 0.000000 0.000000 1.768293 -0.121951 -1.707317 0.022461 -0.008301 1.013184 0.000000 0.000000 0.000000 1.000000 1.000000 1.000000 1.000000
2529622473 2000 -0.647645 3.023346 124.275185 0.000000 0.000000 0.000000 1.341463 0.182927 -1.524390 0.014648 -0.011230 1.008789 0.000000 0.000000 0.000000 1.000000 1.000000 1.000000 1.000000
2529624473 2000 -0.647474 3.023594 124.268517 0.000000 0.000000 0.000000 1.707317 0.121951 -1.646342 0.016602 -0.004883 1.029785 0.000000 0.000000 0.000000 1.000000 1.000000 1.000000 1.000000
2529626474 2001 -0.646658 3.024639 124.261620 0.000000 0.000000 0.000000 2.134146 0.121951 -1.768293 0.010742 -0.005371 1.019043 0.000000 0.000000 0.000000 1.000000 1.000000 1.000000 1.000000
2529628474 2000 -0.646287 3.025247 124.254585 0.000000 0.000000 0.000000 1.890244 0.121951 -1.829268 0.014648 -0.004883 1.009277 0.000000 0.000000 0.000000 1.000000 1.000000 1.000000 1.000000
2529630474 2000 -0.646001 3.024245 124.247589 0.000000 0.000000 0.000000 1.463415 0.182927 -1.829268 0.016602 -0.011719 1.017090 0.000000 0.000000 0.000000 1.000000 1.000000 1.000000 1.000000
2529632474 2000 -0.646013 3.024640 124.240646 0.000000 0.000000 0.000000 1.646342 0.060976 -1.768293 0.017090 -0.002441 1.020020 0.000000 0.000000 0.000000 1.000000 1.000000 1.000000 1.000000
2529634475 2001 -0.646650 3.023906 124.233864 0.000000 0.000000 0.000000 1.646342 -0.121951 -1.707317 0.019531 -0.012695 1.029297 0.000000 0.000000 0.000000 1.000000 1.000000 1.000000 1.000000
2529636475 2000 -0.647472 3.024111 124.227196 0.000000 0.000000 0.000000 1.768293 0.121951 -1.646342 0.025391 -0.006348 1.020996 0.000000 0.000000 0.000000 1.000000 1.000000 1.000000 1.000000
2529638475 2000 -0.646883 3.024439 124.220421 0.000000 0.000000 0.000000 1.829268 0.304878 -1.707317 0.016113 -0.006348 1.025879 0.000000 0.000000 0.000000 1.000000 1.000000 1.000000 1.000000
2529640476 2001 -0.647449 3.024821 124.213875 0.000000 0.000000 0.000000 1.829268 0.000000 -1.585366 0.020996 -0.005859 1.028809 0.000000 0.000000 0.000000 1.000000 1.000000 1.000000 1.000000
2529642476 2000 -0.647568 3.024830 124.206703 0.000000 0.000000 0.000000 1.829268 -0.060976 -1.890244 0.016113 -0.009277 1.027344 0.000000 0.000000 0.000000 1.000000 1.000000 1.000000 1.000000
2529644476 2000 -0.647744 3.024469 124.200134 0.000000 0.000000 0.000000 1.646342 -0.182927 -1.585366 0.014160 -0.009277 1.029785 0.000000 0.000000 0.000000 1.000000 1.000000 1.000000 1.000000
2529646476 2000 -0.647981 3.025267 124.193329 0.000000 0.000000 0.000000 1.524390 0.000000 -1.707317 0.018066 0.003418 1.024414 0.000000 0.000000 0.000000 1.000000 1.000000 1.000000 1.000000
2529648476 2000 -0.648175 3.025450 124.185791 0.000000 0.000000 0.000000 1.646342 -0.182927 -2.073171 0.014648 -0.004395 1.018555 0.000000 0.000000 0.000000 1.000000 1.000000 1.000000 1.000000
2529650477 2001 -0.646115 3.025365 124.179642 0.000000 0.000000 0.000000 1.707317 0.487805 -1.402439 0.005859 -0.007812 1.029785 0.000000 0.000000 0.000000 1.000000 1.000000 1.000000 1.000000
2529652477 2000 -0.645884 3.025518 124.172867 0.000000 0.000000 0.000000 1.768293 0.121951 -1.707317 0.016113 -0.006836 1.031250 0.000000 0.000000 0.000000 1.000000 1.000000 1.000000 1.000000
2529654477 2000 -0.645526 3.025721 124.166321 0.000000 0.000000 0.000000 1.768293 0.060976 -1.585366 0.013672 -0.006348 1.027344 0.000000 0.000000 0.000000 1.000000 1.000000 1.000000 1.000000
2529656477 2000 -0.645759 3.025042 124.159424 0.000000 0.000000 0.000000 1.707317 0.060976 -1.768293 0.019043 -0.013184 1.019043 0.000000 0.000000 0.000000 1.000000 1.000000 1.000000 1.000000
2529658478 2001 -0.645970 3.026086 124.152733 0.000000 0.000000 0.000000 1.646342 0.000000 -1.646342 0.017578 0.003418 1.015137 0.000000 0.000000 0.000000 1.000000 1.000000 1.000000 1.000000
2529660478 2000 -0.646193 3.026650 124.146065 0.000000 0.000000 0.000000 1.707317 0.121951 -1.646342 0.020020 -0.001953 1.022461 0.000000 0.000000 0.000000 1.000000 1.000000 1.000000 1.000000
2529662478 2000 -0.646478 3.028002 124.139000 0.000000 0.000000 0.000000 1.585366 0.000000 -1.829268 0.018555 0.007324 1.022461 0.000000 0.000000 0.000000 1.000000 1.000000 1.000000 1.000000
2529664478 2000 -0.647752 3.028141 124.131584 0.000000 0.000000 0.000000 1.707317 -0.182927 -2.012195 0.024414 -0.005859 1.024414 0.000000 0.000000 0.000000 1.000000 1.000000 1.000000 1.000000
2529666479 2001 -0.647497 3.027034 124.124565 0.000000 0.000000 0.000000 1.585366 0.121951 -1.829268 0.015625 -0.014648 1.004395 0.000000 0.000000 0.000000 1.000000 1.000000 1.000000 1.000000
2529668479 2000 -0.646396 3.026843 124.117790 0.000000 0.000000 0.000000 1.707317 0.182927 -1.707317 0.009277 -0.008789 1.025391 0.000000 0.000000 0.000000 1.000000 1.000000 1.000000 1.000000
2529670479 2000 -0.646391 3.027152 124.110878 0.000000 0.000000 0.000000 1.524390 0.182927 -1.768293 0.019043 -0.000977 1.015137 0.000000 0.000000 0.000000 1.000000 1.000000 1.000000 1.000000
2529672479 2000 -0.646079 3.027493 124.104591 0.000000 0.000000 0.000000 1.707317 0.182927 -1.463415 0.016113 -0.003906 1.022461 0.000000 0.000000 0.000000 1.000000 1.000000 1.000000 1.000000
2529674479 2000 -0.646037 3.026943 124.097572 0.000000 0.000000 0.000000 1.524390 0.182927 -1.829268 0.019043 -0.008789 1.030762 0.000000 0.000000 0.000000 1.000000 1.000000 1.000000 1.000000
2529676480 2001 -0.645693 3.027931 124.091148 0.000000 0.000000 0.000000 1.646342 0.182927 -1.524390 0.015625 0.002930 1.005371 0.000000 0.000000 0.000000 1.000000 1.000000 1.000000 1.000000
2529678481 2001 -0.646293 3.027336 124.084335 0.000000 0.000000 0.000000 1.585366 -0.182927 -1.707317 0.018066 -0.010254 1.027832 0.000000 0.000000 0.000000 1.000000 1.000000 1.000000 1.000000
2529680481 2000 -0.647183 3.027900 124.077545 0.000000 0.000000 0.000000 1.707317 0.121951 -1.707317 0.025879 -0.001953 1.013672 0.000000 0.000000 0.000000 1.000000 1.000000 1.000000 1.000000
2529682481 2000 -0.647874 3.028278 124.070396 0.000000 0.000000 0.000000 1.585366 0.060976 -1.890244 0.023438 -0.001465 1.024414 0.000000 0.000000 0.000000 1.000000 1.000000 1.000000 1.000000
2529684481 2000 -0.648011 3.028452 124.063362 0.000000 0.000000 0.000000 1.646342 0.121951 -1.829268 0.019531 -0.004395 1.026855 0.000000 0.000000 0.000000 1.000000 1.000000 1.000000 1.000000
2529686481 2000 -0.648135 3.028515 124.056328 0.000000 0.000000 0.000000 1.646342 0.000000 -1.829268 0.017090 -0.005371 1.020020 0.000000 0.000000 0.000000 1.000000 1.000000 1.000000 1.000000
2529688481 2000 -0.648571 3.028195 124.050018 0.000000 0.000000 0.000000 1.646342 -0.060976 -1.463415 0.018555 -0.008789 1.025391 0.000000 0.000000 0.000000 1.000000 1.000000 1.000000 1.000000
2529690482 2001 -0.648612 3.029077 124.043449 0.000000 0.000000 0.000000 1.707317 -0.060976 -1.585366 0.015137 0.000977 1.026855 0.000000 0.000000 0.000000 1.000000 1.000000 1.000000 1.000000
2529692482 2000 -0.647867 3.029346 124.036293 0.000000 0.000000 0.000000 1.829268 0.182927 -1.890244 0.012695 -0.006836 1.025391 0.000000 0.000000 0.000000 1.000000 1.000000 1.000000 1.000000
2529694482 2000 -0.648544 3.029460 124.029381 0.000000 0.000000 0.000000 1.646342 0.000000 -1.768293 0.021973 -0.004883 1.018066 0.000000 0.000000 0.000000 1.000000 1.000000 1.000000 1.000000
2529696483 2001 -0.649372 3.029754 124.022331 0.000000 0.000000 0.000000 1.707317 -0.060976 -1.829268 0.022461 -0.004395 1.024902 0.000000 0.000000 0.000000 1.000000 1.000000 1.000000 1.000000
2529698483 2000 -0.648847 3.029989 124.015434 0.000000 0.000000 0.000000 1.463415 0.243902 -1.768293 0.015625 -0.000488 1.021484 0.000000 0.000000 0.000000 1.000000 1.000000 1.000000 1.000000
2529700483 2000 -0.648826 3.030400 124.008286 0.000000 0.000000 0.000000 1.768293 0.182927 -1.890244 0.019043 -0.004395 1.014160 0.000000 0.000000 0.000000 1.000000 1.000000 1.000000 1.000000
2529702484 2001 -0.648452 3.030218 124.000908 0.000000 0.000000 0.000000 1.524390 0.243902 -2.012195 0.017090 -0.005371 1.014160 0.000000 0.000000 0.000000 1.000000 1.000000 1.000000 1.000000
2529704484 2000 -0.650029 3.029500 123.994438 0.000000 0.000000 0.000000 1.585366 -0.304878 -1.524390 0.024414 -0.011230 1.020020 0.000000 0.000000 0.000000 1.000000 1.000000 1.000000 1.000000
2529706484 2000 -0.649879 3.030707 123.987770 0.000000 0.000000 0.000000 1.707317 0.060976 -1.646342 0.015625 0.003906 1.021973 0.000000 0.000000 0.000000 1.000000 1.000000 1.000000 1.000000
2529708484 2000 -0.650012 3.029886 123.980736 0.000000 0.000000 0.000000 1.585366 -0.060976 -1.829268 0.016113 -0.012207 1.020020 0.000000 0.000000 0.000000 1.000000 1.000000 1.000000 1.000000
2529710484 2000 -0.648973 3.029045 123.974327 0.000000 0.000000 0.000000 1.280488 0.243902 -1.524390 0.010742 -0.006836 1.019043 0.000000 0.000000 0.000000 1.000000 1.000000 1.000000 1.000000
2529712484 2000 -0.648834 3.028980 123.967552 0.000000 0.000000 0.000000 1.585366 0.304878 -1.707317 0.020020 -0.005371 1.015625 0.000000 0.000000 0.000000 1.000000 1.000000 1.000000 1.000000
2529714484 2000 -0.649283 3.030356 123.960503 0.000000 0.000000 0.000000 1.951220 0.000000 -1.829268 0.020020 0.000977 1.019043 0.000000 0.000000 0.000000 1.000000 1.000000 1.000000 1.000000
2529716485 2001 -0.649781 3.030439 123.953972 0.000000 0.000000 0.000000 1.768293 0.121951 -1.585366 0.022461 -0.007324 1.020996 0.000000 0.000000 0.000000 1.000000 1.000000 1.000000 1.000000
2529718485 2000 -0.650355 3.030226 123.947044 0.000000 0.000000 0.000000 1.402439 -0.060976 -1.768293 0.020020 -0.003418 1.019531 0.000000 0.000000 0.000000 1.000000 1.000000 1.000000 1.000000
2529720485 2000 -0.650938 3.029412 123.940010 0.000000 0.000000 0.000000 1.585366 0.060976 -1.829268 0.022461 -0.012207 1.024414 0.000000 0.000000 0.000000 1.000000 1.000000 1.000000 1.000000
2529722486 2001 -0.651055 3.029002 123.933479 0.000000 0.000000 0.000000 1.768293 0.182927 -1.585366 0.020020 -0.011719 1.014160 0.000000 0.000000 0.000000 1.000000 1.000000 1.000000 1.000000
2529724486 2000 -0.650604 3.028183 123.926460 0.000000 0.000000 0.000000 1.585366 0.121951 -1.829268 0.014160 -0.012207 1.019531 0.000000 0.000000 0.000000 1.000000 1.000000 1.000000 1.000000
2529726486 2000 -0.650562 3.028093 123.919441 0.000000 0.000000 0.000000 1.707317 0.060976 -1.829268 0.016602 -0.007812 1.011719 0.000000 0.000000 0.000000 1.000000 1.000000 1.000000 1.000000
2529728487 2001 -0.650222 3.029121 123.912415 0.000000 0.000000 0.000000 1.829268 0.243902 -1.829268 0.017090 0.000000 1.004395 0.000000 0.000000 0.000000 1.000000 1.000000 1.000000 1.000000
2529730487 2000 -0.649954 3.029519 123.905670 0.000000 0.000000 0.000000 1.707317 0.365854 -1.707317 0.020020 -0.003418 1.018066 0.000000 0.000000 0.000000 1.000000 1.000000 1.000000 1.000000
2529732487 2000 -0.649129 3.029307 123.899017 0.000000 0.000000 0.000000 1.707317 0.304878 -1.646342 0.013672 -0.008789 1.003906 0.000000 0.000000 0.000000 1.000000 1.000000 1.000000 1.000000
2529734487 2000 -0.648376 3.029703 123.892105 0.000000 0.000000 0.000000 1.707317 0.121951 -1.768293 0.011230 -0.003418 1.008789 0.000000 0.000000 0.000000 1.000000 1.000000 1.000000 1.000000
2529736488 2001 -0.648168 3.029497 123.885315 0.000000 0.000000 0.000000 1.646342 0.000000 -1.707317 0.014160 -0.007812 1.031738 0.000000 0.000000 0.000000 1.000000 1.000000 1.000000 1.000000
2529738488 2000 -0.648308 3.029339 123.878647 0.000000 0.000000 0.000000 1.646342 0.000000 -1.646342 0.017090 -0.007324 1.021484 0.000000 0.000000 0.000000 1.000000 1.000000 1.000000 1.000000
2529740488 2000 -0.647917 3.029157 123.871857 0.000000 0.000000 0.000000 1.829268 0.000000 -1.707317 0.012207 -0.010742 1.008789 0.000000 0.000000 0.000000 1.000000 1.000000 1.000000 1.000000
2529742488 2000 -0.648477 3.029498 123.865181 0.000000 0.000000 0.000000 1.707317 -0.121951 -1.646342 0.018555 -0.003906 1.014648 0.000000 0.000000 0.000000 1.000000 1.000000 1.000000 1.000000
2529744488 2000 -0.648228 3.029180 123.858032 0.000000 0.000000 0.000000 1.646342 0.182927 -1.890244 0.017090 -0.008789 1.020020 0.000000 0.000000 0.000000 1.000000 1.000000 1.000000 1.000000
2529746489 2001 -0.648825 3.030170 123.851585 0.000000 0.000000 0.000000 1.951220 -0.060976 -1.524390 0.020020 -0.002441 1.021973 0.000000 0.000000 0.000000 1.000000 1.000000 1.000000 1.000000
2529748489 2000 -0.648607 3.029052 123.844810 0.000000 0.000000 0.000000 1.280488 0.243902 -1.707317 0.018066 -0.009277 1.007324 0.000000 0.000000 0.000000 1.000000 1.000000 1.000000 1.000000
2529750489 2000 -0.648732 3.028546 123.837791 0.000000 0.000000 0.000000 1.768293 0.000000 -1.829268 0.017090 -0.012695 1.019043 0.000000 0.000000 0.000000 1.000000 1.000000 1.000000 1.000000
2529752490 2001 -0.648307 3.027831 123.830757 0.000000 0.000000 0.000000 1.585366 0.060976 -1.829268 0.013184 -0.011230 1.014160 0.000000 0.000000 0.000000 1.000000 1.000000 1.000000 1.000000
2529754490 2000 -0.647245 3.027988 123.823502 0.000000 0.000000 0.000000 1.829268 0.182927 -1.951220 0.009766 -0.007812 1.013672 0.000000 0.000000 0.000000 1.000000 1.000000 1.000000 1.000000
2529756490 2000 -0.647189 3.028844 123.816826 0.000000 0.000000 0.000000 1.585366 0.121951 -1.646342 0.017578 0.002930 1.025391 0.000000 0.000000 0.000000 1.000000 1.000000 1.000000 1.000000
2529758490 2000 -0.648414 3.028814 123.810387 0.000000 0.000000 0.000000 1.768293 -0.060976 -1.524390 0.025391 -0.008301 1.011230 0.000000 0.000000 0.000000 1.000000 1.000000 1.000000 1.000000
2529760490 2000 -0.648821 3.028444 123.803490 0.000000 0.000000 0.000000 1.707317 0.121951 -1.768293 0.021484 -0.010254 1.005859 0.000000 0.000000 0.000000 1.000000 1.000000 1.000000 1.000000
2529762491 2001 -0.649793 3.027803 123.796806 0.000000 0.000000 0.000000 1.646342 -0.121951 -1.646342 0.022461 -0.011719 1.024414 0.000000 0.000000 0.000000 1.000000 1.000000 1.000000 1.000000
2529764491 2000 -0.649529 3.028157 123.790482 0.000000 0.000000 0.000000 1.524390 -0.060976 -1.463415 0.012207 -0.000488 1.020996 0.000000 0.000000 0.000000 1.000000 1.000000 1.000000 1.000000
2529766491 2000 -0.650348 3.029278 123.783585 0.000000 0.000000 0.000000 2.012195 0.243902 -1.768293 0.027832 -0.002441 1.024902 0.000000 0.000000 0.000000 1.000000 1.000000 1.000000 1.000000
2529768492 2001 -0.649665 3.029408 123.776535 0.000000 0.000000 0.000000 1.707317 -0.060976 -1.829268 0.008789 -0.005859 1.021973 0.000000 0.000000 0.000000 1.000000 1.000000 1.000000 1.000000
2529770492 2000 -0.649382 3.028838 123.769997 0.000000 0.000000 0.000000 1.524390 0.000000 -1.585366 0.013184 -0.008789 1.016602 0.000000 0.000000 0.000000 1.000000 1.000000 1.000000 1.000000
2529772492 2000 -0.649764 3.029101 123.763206 0.000000 0.000000 0.000000 1.585366 0.121951 -1.707317 0.021484 -0.002441 1.018066 0.000000 0.000000 0.000000 1.000000 1.000000 1.000000 1.000000
2529774493 2001 -0.649864 3.029561 123.756905 0.000000 0.000000 0.000000 1.768293 0.060976 -1.463415 0.017578 -0.003906 1.015625 0.000000 0.000000 0.000000 1.000000 1.000000 1.000000 1.000000
2529776493 2000 -0.649458 3.028791 123.749664 0.000000 0.000000 0.000000 1.707317 0.243902 -1.951220 0.017090 -0.014160 1.034668 0.000000 0.000000 0.000000 1.000000 1.000000 1.000000 1.000000
2529778493 2000 -0.648928 3.028627 123.742279 0.000000 0.000000 0.000000 1.341463 0.243902 -2.012195 0.015625 -0.001953 1.009277 0.000000 0.000000 0.000000 1.000000 1.000000 1.000000 1.000000
2529780493 2000 -0.648699 3.028957 123.735382 0.000000 0.000000 0.000000 1.890244 0.182927 -1.768293 0.017090 -0.007324 1.015625 0.000000 0.000000 0.000000 1.000000 1.000000 1.000000 1.000000
2529782493 2000 -0.649221 3.028884 123.728592 0.000000 0.000000 0.000000 1.768293 -0.060976 -1.707317 0.019531 -0.008789 1.022949 0.000000 0.000000 0.000000 1.000000 1.000000 1.000000 1.000000
2529784494 2001 -0.649489 3.028048 123.722145 0.000000 0.000000 0.000000 1.707317 -0.121951 -1.524390 0.016113 -0.014648 1.032227 0.000000 0.000000 0.000000 1.000000 1.000000 1.000000 1.000000
2529786494 2000 -0.648663 3.027990 123.715393 0.000000 0.000000 0.000000 1.585366 0.365854 -1.707317 0.015137 -0.005371 1.027344 0.000000 0.000000 0.000000 1.000000 1.000000 1.000000 1.000000
2529788494 2000 -0.648628 3.029013 123.708725 0.000000 0.000000 0.000000 1.829268 0.121951 -1.646342 0.017578 0.000000 1.013672 0.000000 0.000000 0.000000 1.000000 1.000000 1.000000 1.000000
2529790494 2000 -0.648989 3.028454 123.702156 0.000000 0.000000 0.000000 1.524390 -0.060976 -1.585366 0.018066 -0.008789 1.028809 0.000000 0.000000 0.000000 1.000000 1.000000 1.000000 1.000000
2529792494 2000 -0.649186 3.028444 123.695610 0.000000 0.000000 0.000000 1.585366 0.000000 -1.585366 0.017578 -0.004883 1.021973 0.000000 0.000000 0.000000 1.000000 1.000000 1.000000 1.000000
2529794495 2001 -0.649507 3.027361 123.689224 0.000000 0.000000 0.000000 1.646342 0.000000 -1.524390 0.018555 -0.015625 1.018066 0.000000 0.000000 0.000000 1.000000 1.000000 1.000000 1.000000
2529796495 2000 -0.649725 3.027153 123.682419 0.000000 0.000000 0.000000 1.646342 0.121951 -1.707317 0.020020 -0.007812 1.019043 0.000000 0.000000 0.000000 1.000000 1.000000 1.000000 1.000000
2529798495 2000 -0.649838 3.027120 123.675781 0.000000 0.000000 0.000000 1.463415 0.121951 -1.646342 0.019043 -0.002930 1.020020 0.000000 0.000000 0.000000 1.000000 1.000000 1.000000 1.000000
2529800495 2000 -0.649565 3.026975 123.669113 0.000000 0.000000 0.000000 1.707317 0.182927 -1.646342 0.016602 -0.008301 1.016113 0.000000 0.000000 0.000000 1.000000 1.000000 1.000000 1.000000
2529802496 2001 -0.649093 3.028447 123.661972 0.000000 0.000000 0.000000 1.890244 0.365854 -1.890244 0.018555 0.002930 1.029297 0.000000 0.000000 0.000000 1.000000 1.000000 1.000000 1.000000
2529804496 2000 -0.649257 3.027950 123.655426 0.000000 0.000000 0.000000 1.341463 -0.060976 -1.585366 0.016113 -0.004883 1.017578 0.000000 0.000000 0.000000 1.000000 1.000000 1.000000 1.000000
2529806496 2000 -0.650533 3.027815 123.648483 0.000000 0.000000 0.000000 1.707317 -0.121951 -1.768293 0.025391 -0.008301 1.026367 0.000000 0.000000 0.000000 1.000000 1.000000 1.000000 1.000000
2529808496 2000 -0.651228 3.027616 123.641563 0.000000 0.000000 0.000000 1.890244 -0.182927 -1.768293 0.019043 -0.012207 1.026367 0.000000 0.000000 0.000000 1.000000 1.000000 1.000000 1.000000
2529810497 2001 -0.651677 3.027220 123.634758 0.000000 0.000000 0.000000 1.524390 0.000000 -1.707317 0.020020 -0.007324 1.022949 0.000000 0.000000 0.000000 1.000000 1.000000 1.000000 1.000000
2529812497 2000 -0.650724 3.028070 123.627998 0.000000 0.000000 0.000000 1.768293 0.304878 -1.707317 0.012695 -0.000488 1.008789 0.000000 0.000000 0.000000 1.000000 1.000000 1.000000 1.000000
2529814497 2000 -0.650965 3.028636 123.620827 0.000000 0.000000 0.000000 1.707317 -0.060976 -1.890244 0.017090 -0.001953 1.015625 0.000000 0.000000 0.000000 1.000000 1.000000 1.000000 1.000000
2529816497 2000 -0.650843 3.027967 123.614174 0.000000 0.000000 0.000000 1.768293 0.182927 -1.646342 0.018066 -0.014160 1.021973 0.000000 0.000000 0.000000 1.000000 1.000000 1.000000 1.000000
2529818498 2001 -0.651406 3.028621 123.607590 0.000000 0.000000 0.000000 1.646342 -0.243902 -1.585366 0.016602 0.000000 1.027344 0.000000 0.000000 0.000000 1.000000 1.000000 1.000000 1.000000
2529820498 2000 -0.650253 3.028127 123.600662 0.000000 0.000000 0.000000 1.585366 0.121951 -1.768293 0.007812 -0.009277 1.021973 0.000000 0.000000 0.000000 1.000000 1.000000 1.000000 1.000000
2529822498 2000 -0.649933 3.027929 123.594131 0.000000 0.000000 0.000000 1.463415 0.121951 -1.585366 0.015137 -0.004395 1.022949 0.000000 0.000000 0.000000 1.000000 1.000000 1.000000 1.000000
2529824499 2001 -0.649449 3.027725 123.586998 0.000000 0.000000 0.000000 1.646342 0.243902 -1.890244 0.016113 -0.007812 1.020996 0.000000 0.000000 0.000000 1.000000 1.000000 1.000000 1.000000
2529826499 2000 -0.649729 3.027882 123.580238 0.000000 0.000000 0.000000 1.585366 0.304878 -1.707317 0.023926 -0.003418 1.021973 0.000000 0.000000 0.000000 1.000000 1.000000 1.000000 1.000000
2529828499 2000 -0.649614 3.027777 123.573425 0.000000 0.000000 0.000000 1.646342 -0.060976 -1.707317 0.013672 -0.006836 1.013184 0.000000 0.000000 0.000000 1.000000 1.000000 1.000000 1.000000
2529830499 2000 -0.650333 3.028384 123.566521 0.000000 0.000000 0.000000 1.646342 0.060976 -1.768293 0.023438 -0.000488 1.016602 0.000000 0.000000 0.000000 1.000000 1.000000 1.000000 1.000000
2529832500 2001 -0.650952 3.028810 123.560089 0.000000 0.000000 0.000000 1.829268 0.000000 -1.524390 0.021484 -0.005371 1.028809 0.000000 0.000000 0.000000 1.000000 1.000000 1.000000 1.000000
2529834500 2000 -0.651161 3.027964 123.553284 0.000000 0.000000 0.000000 1.707317 -0.121951 -1.707317 0.015625 -0.014648 1.021484 0.000000 0.000000 0.000000 1.000000 1.000000 1.000000 1.000000
2529836500 2000 -0.651161 3.027893 123.546371 0.000000 0.000000 0.000000 1.768293 0.060976 -1.768293 0.017090 -0.008789 1.021484 0.000000 0.000000 0.000000 1.000000 1.000000 1.000000 1.000000
2529838500 2000 -0.651420 3.027305 123.539856 0.000000 0.000000 0.000000 1.402439 0.182927 -1.585366 0.021484 -0.006836 1.022949 0.000000 0.000000 0.000000 1.000000 1.000000 1.000000 1.000000
2529840501 2001 -0.652239 3.026870 123.533043 0.000000 0.000000 0.000000 1.829268 -0.182927 -1.707317 0.020020 -0.013184 1.020996 0.000000 0.000000 0.000000 1.000000 1.000000 1.000000 1.000000
2529842501 2000 -0.652551 3.026790 123.526024 0.000000 0.000000 0.000000 1.707317 0.060976 -1.829268 0.020020 -0.007812 1.023438 0.000000 0.000000 0.000000 1.000000 1.000000 1.000000 1.000000
2529844501 2000 -0.652429 3.026304 123.519707 0.000000 0.000000 0.000000 1.402439 0.060976 -1.463415 0.015625 -0.005859 1.014648 0.000000 0.000000 0.000000 1.000000 1.000000 1.000000 1.000000
2529846501 2000 -0.652075 3.025450 123.512794 0.000000 0.000000 0.000000 1.402439 -0.060976 -1.768293 0.011719 -0.009277 1.020508 0.000000 0.000000 0.000000 1.000000 1.000000 1.000000 1.000000
2529848501 2000 -0.650849 3.025806 123.505394 0.000000 0.000000 0.000000 1.707317 0.121951 -2.012195 0.007324 -0.003906 1.013184 0.000000 0.000000 0.000000 1.000000 1.000000 1.000000 1.000000
2529850502 2001 -0.650267 3.025886 123.498375 0.000000 0.000000 0.000000 1.707317 0.243902 -1.829268 0.015137 -0.006348 1.017578 0.000000 0.000000 0.000000 1.000000 1.000000 1.000000 1.000000
2529852502 2000 -0.650253 3.026862 123.491333 0.000000 0.000000 0.000000 1.585366 0.121951 -1.829268 0.018066 0.003906 1.019043 0.000000 0.000000 0.000000 1.000000 1.000000 1.000000 1.000000
2529854502 2000 -0.650267 3.027298 123.484093 0.000000 0.000000 0.000000 1.585366 0.426829 -1.951220 0.023926 -0.000977 1.019531 0.000000 0.000000 0.000000 1.000000 1.000000 1.000000 1.000000
2529856503 2001 -0.650725 3.027392 123.477295 0.000000 0.000000 0.000000 1.768293 -0.060976 -1.707317 0.019043 -0.007324 1.026367 0.000000 0.000000 0.000000 1.000000 1.000000 1.000000 1.000000
2529858503 2000 -0.650703 3.027029 123.470276 0.000000 0.000000 0.000000 1.707317 0.243902 -1.829268 0.020020 -0.010254 1.010254 0.000000 0.000000 0.000000 1.000000 1.000000 1.000000 1.000000
2529860503 2000 -0.649953 3.027775 123.463005 0.000000 0.000000 0.000000 1.768293 0.182927 -1.951220 0.012695 -0.001465 1.021484 0.000000 0.000000 0.000000 1.000000 1.000000 1.000000 1.000000
2529862503 2000 -0.650278 3.027427 123.456337 0.000000 0.000000 0.000000 1.524390 -0.060976 -1.646342 0.017578 -0.006836 1.014648 0.000000 0.000000 0.000000 1.000000 1.000000 1.000000 1.000000
2529864504 2001 -0.649869 3.026578 123.449799 0.000000 0.000000 0.000000 1.463415 0.060976 -1.585366 0.013184 -0.010254 1.019043 0.000000 0.000000 0.000000 1.000000 1.000000 1.000000 1.000000
2529866504 2000 -0.649929 3.026480 123.442757 0.000000 0.000000 0.000000 1.646342 0.060976 -1.829268 0.017578 -0.006836 1.016113 0.000000 0.000000 0.000000 1.000000 1.000000 1.000000 1.000000
2529868504 2000 -0.650103 3.026274 123.436104 0.000000 0.000000 0.000000 1.646342 0.060976 -1.646342 0.018555 -0.007812 1.023438 0.000000 0.000000 0.000000 1.000000 1.000000 1.000000 1.000000
2529870504 2000 -0.650084 3.026278 123.429825 0.000000 0.000000 0.000000 1.646342 0.121951 -1.463415 0.017578 -0.005859 1.013672 0.000000 0.000000 0.000000 1.000000 1.000000 1.000000 1.000000
2529872505 2001 -0.650731 3.027399 123.423241 0.000000 0.000000 0.000000 1.768293 0.000000 -1.585366 0.021484 0.001953 1.014160 0.000000 0.000000 0.000000 1.000000 1.000000 1.000000 1.000000
2529874505 2000 -0.650711 3.028187 123.416191 0.000000 0.000000 0.000000 1.524390 0.000000 -1.829268 0.016113 0.003418 1.037109 0.000000 0.000000 0.000000 1.000000 1.000000 1.000000 1.000000
2529876505 2000 -0.651079 3.028626 123.409508 0.000000 0.000000 0.000000 1.646342 0.000000 -1.646342 0.019043 -0.001953 1.013184 0.000000 0.000000 0.000000 1.000000 1.000000 1.000000 1.000000
2529878505 2000 -0.650851 3.028564 123.402489 0.000000 0.000000 0.000000 1.585366 0.182927 -1.829268 0.017090 -0.005371 1.009766 0.000000 0.000000 0.000000 1.000000 1.000000 1.000000 1.000000
2529880506 2001 -0.651347 3.028922 123.395836 0.000000 0.000000 0.000000 1.768293 0.060976 -1.646342 0.021484 -0.004883 1.023438 0.000000 0.000000 0.000000 1.000000 1.000000 1.000000 1.000000
2529882506 2000 -0.652031 3.028458 123.389030 0.000000 0.000000 0.000000 1.463415 0.121951 -1.707317 0.024414 -0.006836 1.025879 0.000000 0.000000 0.000000 1.000000 1.000000 1.000000 1.000000
2529884506 2000 -0.652053 3.028391 123.382751 0.000000 0.000000 0.000000 1.585366 0.121951 -1.463415 0.018066 -0.005371 1.019043 0.000000 0.000000 0.000000 1.000000 1.000000 1.000000 1.000000
2529886506 2000 -0.652722 3.029252 123.375977 0.000000 0.000000 0.000000 1.829268 0.121951 -1.707317 0.023926 -0.001465 1.010254 0.000000 0.000000 0.000000 1.000000 1.000000 1.000000 1.000000
2529888506 2000 -0.652642 3.029235 123.369797 0.000000 0.000000 0.000000 1.829268 0.121951 -1.402439 0.017090 -0.009277 1.017578 0.000000 0.000000 0.000000 1.000000 1.000000 1.000000 1.000000
2529890507 2001 -0.653127 3.029864 123.363014 0.000000 0.000000 0.000000 1.768293 0.060976 -1.707317 0.021484 -0.002441 1.023926 0.000000 0.000000 0.000000 1.000000 1.000000 1.000000 1.000000
2529892507 2000 -0.652472 3.028825 123.356003 0.000000 0.000000 0.000000 1.585366 0.304878 -1.829268 0.015625 -0.014160 1.018066 0.000000 0.000000 0.000000 1.000000 1.000000 1.000000 1.000000
2529894507 2000 -0.652836 3.029329 123.348724 0.000000 0.000000 0.000000 1.890244 -0.060976 -1.951220 0.018555 -0.005859 1.031250 0.000000 0.000000 0.000000 1.000000 1.000000 1.000000 1.000000
2529896508 2001 -0.652926 3.030070 123.341553 0.000000 0.000000 0.000000 1.768293 0.000000 -1.890244 0.017090 -0.001465 1.029297 0.000000 0.000000 0.000000 1.000000 1.000000 1.000000 1.000000
2529898508 2000 -0.651452 3.029089 123.334663 0.000000 0.000000 0.000000 1.768293 0.304878 -1.768293 0.008301 -0.017090 1.030762 0.000000 0.000000 0.000000 1.000000 1.000000 1.000000 1.000000
2529900508 2000 -0.650995 3.028676 123.327415 0.000000 0.000000 0.000000 1.707317 0.121951 -1.951220 0.014160 -0.010742 1.015137 0.000000 0.000000 0.000000 1.000000 1.000000 1.000000 1.000000
2529902508 2000 -0.651837 3.028131 123.320503 0.000000 0.000000 0.000000 1.829268 -0.060976 -1.768293 0.022461 -0.014160 1.020508 0.000000 0.000000 0.000000 1.000000 1.000000 1.000000 1.000000
2529904509 2001 -0.651816 3.029029 123.313957 0.000000 0.000000 0.000000 1.768293 0.243902 -1.585366 0.020020 0.000000 1.020508 0.000000 0.000000 0.000000 1.000000 1.000000 1.000000 1.000000
2529906509 2000 -0.652123 3.028949 123.307396 0.000000 0.000000 0.000000 1.768293 0.000000 -1.585366 0.018555 -0.008789 1.018555 0.000000 0.000000 0.000000 1.000000 1.000000 1.000000 1.000000
2529908509 2000 -0.651662 3.029655 123.300980 0.000000 0.000000 0.000000 1.646342 0.060976 -1.524390 0.012695 0.000488 1.019043 0.000000 0.000000 0.000000 1.000000 1.000000 1.000000 1.000000
2529910509 2000 -0.650900 3.030242 123.294189 0.000000 0.000000 0.000000 1.829268 0.060976 -1.707317 0.010254 -0.003906 1.028809 0.000000 0.000000 0.000000 1.000000 1.000000 1.000000 1.000000
2529912510 2001 -0.651173 3.030688 123.287865 0.000000 0.000000 0.000000 1.707317 -0.060976 -1.463415 0.017090 -0.002930 1.022949 0.000000 0.000000 0.000000 1.000000 1.000000 1.000000 1.000000
2529914510 2000 -0.651057 3.031014 123.281052 0.000000 0.000000 0.000000 1.646342 -0.121951 -1.707317 0.012695 -0.002930 1.020020 0.000000 0.000000 0.000000 1.000000 1.000000 1.000000 1.000000
2529916510 2000 -0.651237 3.031210 123.274025 0.000000 0.000000 0.000000 1.768293 0.182927 -1.829268 0.020996 -0.006348 1.022949 0.000000 0.000000 0.000000 1.000000 1.000000 1.000000 1.000000
2529918511 2001 -0.650626 3.031482 123.267128 0.000000 0.000000 0.000000 1.402439 0.121951 -1.768293 0.012695 0.000977 1.021484 0.000000 0.000000 0.000000 1.000000 1.000000 1.000000 1.000000
2529920511 2000 -0.650677 3.030916 123.260078 0.000000 0.000000 0.000000 1.524390 0.060976 -1.829268 0.017578 -0.008789 1.019531 0.000000 0.000000 0.000000 1.000000 1.000000 1.000000 1.000000
2529922511 2000 -0.650766 3.030187 123.254166 0.000000 0.000000 0.000000 1.524390 0.060976 -1.280488 0.017578 -0.010254 1.030762 0.000000 0.000000 0.000000 1.000000 1.000000 1.000000 1.000000
2529924511 2000 -0.651327 3.030515 123.247482 0.000000 0.000000 0.000000 1.646342 0.000000 -1.646342 0.020996 -0.002930 1.024414 0.000000 0.000000 0.000000 1.000000 1.000000 1.000000 1.000000
2529926511 2000 -0.652260 3.030656 123.240448 0.000000 0.000000 0.000000 1.768293 0.000000 -1.829268 0.024414 -0.006836 1.019043 0.000000 0.000000 0.000000 1.000000 1.000000 1.000000 1.000000
2529928512 2001 -0.652708 3.029894 123.233536 0.000000 0.000000 0.000000 1.646342 0.060976 -1.768293 0.020996 -0.012695 1.013672 0.000000 0.000000 0.000000 1.000000 1.000000 1.000000 1.000000
2529930512 2000 -0.651992 3.030481 123.226639 0.000000 0.000000 0.000000 1.829268 0.121951 -1.768293 0.011719 -0.003906 1.017090 0.000000 0.000000 0.000000 1.000000 1.000000 1.000000 1.000000
2529932512 2000 -0.651879 3.029864 123.220108 0.000000 0.000000 0.000000 1.585366 0.243902 -1.585366 0.019043 -0.010254 1.012695 0.000000 0.000000 0.000000 1.000000 1.000000 1.000000 1.000000
2529934512 2000 -0.651724 3.029563 123.213058 0.000000 0.000000 0.000000 1.463415 -0.060976 -1.829268 0.013672 -0.005371 1.028320 0.000000 0.000000 0.000000 1.000000 1.000000 1.000000 1.000000
2529936513 2001 -0.651974 3.030489 123.206284 0.000000 0.000000 0.000000 1.890244 0.060976 -1.707317 0.019043 -0.001953 1.007812 0.000000 0.000000 0.000000 1.000000 1.000000 1.000000 1.000000
2529938513 2000 -0.651845 3.031377 123.200218 0.000000 0.000000 0.000000 1.768293 0.121951 -1.341463 0.016602 0.000000 1.019043 0.000000 0.000000 0.000000 1.000000 1.000000 1.000000 1.000000
2529940513 2000 -0.652757 3.031112 123.193924 0.000000 0.000000 0.000000 1.707317 0.060976 -1.463415 0.024902 -0.009277 1.015625 0.000000 0.000000 0.000000 1.000000 1.000000 1.000000 1.000000
2529942514 2001 -0.652147 3.031957 123.187134 0.000000 0.000000 0.000000 1.524390 0.182927 -1.707317 0.013672 0.003906 1.013672 0.000000 0.000000 0.000000 1.000000 1.000000 1.000000 1.000000
2529944514 2000 -0.652429 3.032228 123.180450 0.000000 0.000000 0.000000 1.646342 0.000000 -1.646342 0.018555 -0.003418 1.027344 0.000000 0.000000 0.000000 1.000000 1.000000 1.000000 1.000000
2529946514 2000 -0.653910 3.031736 123.173927 0.000000 0.000000 0.000000 1.585366 0.121951 -1.585366 0.031738 -0.009277 1.032715 0.000000 0.000000 0.000000 1.000000 1.000000 1.000000 1.000000
2529948514 2000 -0.653216 3.032027 123.166885 0.000000 0.000000 0.000000 1.707317 0.121951 -1.829268 0.012207 -0.004395 1.034668 0.000000 0.000000 0.000000 1.000000 1.000000 1.000000 1.000000
2529950514 2000 -0.653193 3.033379 123.160362 0.000000 0.000000 0.000000 1.707317 0.304878 -1.585366 0.021484 0.005371 1.038086 0.000000 0.000000 0.000000 1.000000 1.000000 1.000000 1.000000
2529952514 2000 -0.653198 3.033809 123.153572 0.000000 0.000000 0.000000 1.646342 0.060976 -1.707317 0.017090 -0.001953 1.019043 0.000000 0.000000 0.000000 1.000000 1.000000 1.000000 1.000000
2529954515 2001 -0.652961 3.033355 123.146164 0.000000 0.000000 0.000000 1.768293 0.000000 -2.012195 0.014160 -0.012207 1.023438 0.000000 0.000000 0.000000 1.000000 1.000000 1.000000 1.000000
2529956516 2001 -0.653494 3.032195 123.139488 0.000000 0.000000 0.000000 1.585366 -0.060976 -1.646342 0.019531 -0.015137 1.017090 0.000000 0.000000 0.000000 1.000000 1.000000 1.000000 1.000000
2529958516 2000 -0.653139 3.031806 123.132355 0.000000 0.000000 0.000000 1.585366 0.121951 -1.890244 0.015137 -0.008301 1.020020 0.000000 0.000000 0.000000 1.000000 1.000000 1.000000 1.000000
2529960516 2000 -0.653654 3.032042 123.126289 0.000000 0.000000 0.000000 1.524390 0.060976 -1.341463 0.021484 -0.001465 1.026855 0.000000 0.000000 0.000000 1.000000 1.000000 1.000000 1.000000
2529962516 2000 -0.652830 3.032109 123.119514 0.000000 0.000000 0.000000 1.707317 0.121951 -1.707317 0.010742 -0.006348 1.020508 0.000000 0.000000 0.000000 1.000000 1.000000 1.000000 1.000000
2529964516 2000 -0.652567 3.031733 123.112602 0.000000 0.000000 0.000000 1.646342 0.000000 -1.768293 0.013672 -0.009277 1.022461 0.000000 0.000000 0.000000 1.000000 1.000000 1.000000 1.000000
2529966517 2001 -0.653813 3.031762 123.105789 0.000000 0.000000 0.000000 1.524390 0.000000 -1.707317 0.027344 -0.003418 1.026855 0.000000 0.000000 0.000000 1.000000 1.000000 1.000000 1.000000
2529968517 2000 -0.653884 3.031922 123.099396 0.000000 0.000000 0.000000 1.646342 0.304878 -1.524390 0.021973 -0.004395 1.022949 0.000000 0.000000 0.000000 1.000000 1.000000 1.000000 1.000000
2529970517 2000 -0.654437 3.032158 123.092361 0.000000 0.000000 0.000000 1.951220 -0.060976 -1.829268 0.020020 -0.009277 1.022461 0.000000 0.000000 0.000000 1.000000 1.000000 1.000000 1.000000
2529972517 2000 -0.654644 3.032440 123.085556 0.000000 0.000000 0.000000 1.707317 -0.060976 -1.707317 0.016602 -0.004395 1.011230 0.000000 0.000000 0.000000 1.000000 1.000000 1.000000 1.000000
2529974517 2000 -0.654289 3.032554 123.079132 0.000000 0.000000 0.000000 1.707317 0.060976 -1.524390 0.013672 -0.005859 1.017090 0.000000 0.000000 0.000000 1.000000 1.000000 1.000000 1.000000
2529976518 2001 -0.653699 3.032603 123.072716 0.000000 0.000000 0.000000 1.646342 0.121951 -1.524390 0.012695 -0.005371 1.020508 0.000000 0.000000 0.000000 1.000000 1.000000 1.000000 1.000000
2529978518 2000 -0.653546 3.032521 123.066017 0.000000 0.000000 0.000000 1.524390 0.000000 -1.646342 0.014648 -0.004395 1.028320 0.000000 0.000000 0.000000 1.000000 1.000000 1.000000 1.000000
2529980518 2000 -0.654167 3.033467 123.059219 0.000000 0.000000 0.000000 1.768293 -0.060976 -1.707317 0.020508 0.000488 1.021973 0.000000 0.000000 0.000000 1.000000 1.000000 1.000000 1.000000
2529982518 2000 -0.654331 3.032438 123.051826 0.000000 0.000000 0.000000 1.890244 -0.060976 -2.012195 0.016602 -0.019531 1.017578 0.000000 0.000000 0.000000 1.000000 1.000000 1.000000 1.000000
2529984519 2001 -0.653727 3.032676 123.045052 0.000000 0.000000 0.000000 1.768293 0.182927 -1.707317 0.013672 -0.005859 1.008301 0.000000 0.000000 0.000000 1.000000 1.000000 1.000000 1.000000
2529986519 2000 -0.654931 3.032506 123.037880 0.000000 0.000000 0.000000 1.585366 -0.121951 -1.890244 0.024902 -0.006348 1.024902 0.000000 0.000000 0.000000 1.000000 1.000000 1.000000 1.000000
2529988519 2000 -0.654849 3.032736 123.030846 0.000000 0.000000 0.000000 1.707317 0.182927 -1.829268 0.018555 -0.004883 1.014648 0.000000 0.000000 0.000000 1.000000 1.000000 1.000000 1.000000
2529990520 2001 -0.654597 3.031838 123.023834 0.000000 0.000000 0.000000 1.707317 0.121951 -1.829268 0.016113 -0.015137 1.025879 0.000000 0.000000 0.000000 1.000000 1.000000 1.000000 1.000000
2529992520 2000 -0.653571 3.031584 123.017197 0.000000 0.000000 0.000000 1.463415 0.243902 -1.646342 0.011230 -0.004883 1.034180 0.000000 0.000000 0.000000 1.000000 1.000000 1.000000 1.000000
2529994520 2000 -0.654277 3.030869 123.010887 0.000000 0.000000 0.000000 1.646342 0.000000 -1.463415 0.021973 -0.012207 1.014160 0.000000 0.000000 0.000000 1.000000 1.000000 1.000000 1.000000
2529996520 2000 -0.654513 3.031443 123.003815 0.000000 0.000000 0.000000 1.768293 -0.304878 -1.829268 0.012695 -0.002930 1.016602 0.000000 0.000000 0.000000 1.000000 1.000000 1.000000 1.000000
2529998520 2000 -0.655006 3.030864 122.996765 0.000000 0.000000 0.000000 1.463415 0.000000 -1.829268 0.020508 -0.007812 1.018555 0.000000 0.000000 0.000000 1.000000 1.000000 1.000000 1.000000
2530000521 2001 -0.655945 3.030296 122.989861 0.000000 0.000000 0.000000 1.768293 0.000000 -1.768293 0.024414 -0.013184 1.016602 0.000000 0.000000 0.000000 1.000000 1.000000 1.000000 1.000000
2530002521 2000 -0.655531 3.029771 122.982719 0.000000 0.000000 0.000000 1.646342 0.060976 -1.890244 0.013672 -0.010742 1.029297 0.000000 0.000000 0.000000 1.000000 1.000000 1.000000 1.000000
2530004521 2000 -0.655093 3.029955 122.975670 0.000000 0.000000 0.000000 1.707317 0.000000 -1.829268 0.012207 -0.005371 1.022949 0.000000 0.000000 0.000000 1.000000 1.000000 1.000000 1.000000
2530006521 2000 -0.655340 3.029773 122.968895 0.000000 0.000000 0.000000 1.524390 0.121951 -1.707317 0.020508 -0.005371 1.025391 0.000000 0.000000 0.000000 1.000000 1.000000 1.000000 1.000000
2530008522 2001 -0.655435 3.029343 122.961876 0.000000 0.000000 0.000000 1.585366 0.182927 -1.829268 0.020508 -0.008789 1.033203 0.000000 0.000000 0.000000 1.000000 1.000000 1.000000 1.000000
2530010522 2000 -0.655394 3.029082 122.955833 0.000000 0.000000 0.000000 1.707317 0.182927 -1.341463 0.018555 -0.009277 1.019531 0.000000 0.000000 0.000000 1.000000 1.000000 1.000000 1.000000
2530012522 2000 -0.654839 3.029102 122.948936 0.000000 0.000000 0.000000 1.463415 0.121951 -1.768293 0.013184 -0.002441 1.015137 0.000000 0.000000 0.000000 1.000000 1.000000 1.000000 1.000000
2530014522 2000 -0.655071 3.029062 122.942009 0.000000 0.000000 0.000000 1.707317 0.060976 -1.768293 0.019043 -0.007324 1.010254 0.000000 0.000000 0.000000 1.000000 1.000000 1.000000 1.000000
2530016522 2000 -0.656186 3.029589 122.934975 0.000000 0.000000 0.000000 1.524390 -0.060976 -1.829268 0.024902 0.000977 1.013672 0.000000 0.000000 0.000000 1.000000 1.000000 1.000000 1.000000
2530018523 2001 -0.655054 3.029710 122.928581 0.000000 0.000000 0.000000 1.707317 0.365854 -1.524390 0.012207 -0.005859 1.019043 0.000000 0.000000 0.000000 1.000000 1.000000 1.000000 1.000000
2530020523 2000 -0.656003 3.030592 122.921318 0.000000 0.000000 0.000000 1.646342 0.182927 -1.951220 0.027832 0.001953 1.011719 0.000000 0.000000 0.000000 1.000000 1.000000 1.000000 1.000000
2530022523 2000 -0.656093 3.030668 122.915253 0.000000 0.000000 0.000000 1.768293 0.060976 -1.341463 0.017578 -0.007324 1.020996 0.000000 0.000000 0.000000 1.000000 1.000000 1.000000 1.000000
2530024524 2001 -0.655273 3.031487 122.907944 0.000000 0.000000 0.000000 1.646342 -0.060976 -1.951220 0.007812 0.001465 1.024414 0.000000 0.000000 0.000000 1.000000 1.000000 1.000000 1.000000
2530026524 2000 -0.655310 3.031370 122.900925 0.000000 0.000000 0.000000 1.585366 0.060976 -1.829268 0.017578 -0.005859 1.022461 0.000000 0.000000 0.000000 1.000000 1.000000 1.000000 1.000000
2530028524 2000 -0.655856 3.031735 122.894394 0.000000 0.000000 0.000000 1.585366 0.365854 -1.585366 0.027344 -0.001465 1.019043 0.000000 0.000000 0.000000 1.000000 1.000000 1.000000 1.000000
2530030524 2000 -0.655370 3.031924 122.887589 0.000000 0.000000 0.000000 1.524390 0.060976 -1.707317 0.012695 -0.001953 1.017578 0.000000 0.000000 0.000000 1.000000 1.000000 1.000000 1.000000
2530032525 2001 -0.655486 3.032227 122.880569 0.000000 0.000000 0.000000 1.524390 0.060976 -1.829268 0.018066 -0.000977 1.009277 0.000000 0.000000 0.000000 1.000000 1.000000 1.000000 1.000000
2530034525 2000 -0.655780 3.032593 122.873627 0.000000 0.000000 0.000000 1.829268 -0.060976 -1.768293 0.017578 -0.005859 1.018066 0.000000 0.000000 0.000000 1.000000 1.000000 1.000000 1.000000
2530036525 2000 -0.656454 3.032973 122.866745 0.000000 0.000000 0.000000 1.890244 0.182927 -1.768293 0.025391 -0.006836 1.019043 0.000000 0.000000 0.000000 1.000000 1.000000 1.000000 1.000000
2530038525 2000 -0.655765 3.033254 122.859833 0.000000 0.000000 0.000000 1.463415 0.121951 -1.768293 0.012207 0.000000 1.032227 0.000000 0.000000 0.000000 1.000000 1.000000 1.000000 1.000000
2530040526 2001 -0.656537 3.033133 122.852783 0.000000 0.000000 0.000000 1.585366 -0.060976 -1.829268 0.021973 -0.005859 1.020020 0.000000 0.000000 0.000000 1.000000 1.000000 1.000000 1.000000
2530042526 2000 -0.656951 3.033274 122.845161 0.000000 0.000000 0.000000 1.768293 0.243902 -2.134146 0.024414 -0.006836 1.014648 0.000000 0.000000 0.000000 1.000000 1.000000 1.000000 1.000000
2530044526 2000 -0.656641 3.033375 122.837769 0.000000 0.000000 0.000000 1.829268 0.060976 -2.012195 0.014648 -0.008301 1.021973 0.000000 0.000000 0.000000 1.000000 1.000000 1.000000 1.000000
2530046526 2000 -0.656885 3.032896 122.831459 0.000000 0.000000 0.000000 1.463415 0.000000 -1.463415 0.018066 -0.006836 1.024902 0.000000 0.000000 0.000000 1.000000 1.000000 1.000000 1.000000
2530048527 2001 -0.656455 3.033329 122.824425 0.000000 0.000000 0.000000 1.646342 0.243902 -1.829268 0.016602 -0.001953 1.016602 0.000000 0.000000 0.000000 1.000000 1.000000 1.000000 1.000000
2530050527 2000 -0.656618 3.033823 122.817047 0.000000 0.000000 0.000000 1.646342 0.182927 -2.012195 0.020996 -0.001465 1.016602 0.000000 0.000000 0.000000 1.000000 1.000000 1.000000 1.000000
2530052527 2000 -0.657082 3.034474 122.809753 0.000000 0.000000 0.000000 1.646342 0.000000 -1.951220 0.020508 0.000000 1.023438 0.000000 0.000000 0.000000 1.000000 1.000000 1.000000 1.000000
2530054527 2000 -0.657112 3.034853 122.802483 0.000000 0.000000 0.000000 1.890244 0.060976 -1.951220 0.017578 -0.006836 1.017090 0.000000 0.000000 0.000000 1.000000 1.000000 1.000000 1.000000
2530056527 2000 -0.657702 3.035464 122.795052 0.000000 0.000000 0.000000 1.707317 -0.182927 -2.012195 0.018555 -0.001465 1.031250 0.000000 0.000000 0.000000 1.000000 1.000000 1.000000 1.000000
2530058527 2000 -0.656841 3.034241 122.788658 0.000000 0.000000 0.000000 1.585366 0.121951 -1.524390 0.010254 -0.015625 1.015625 0.000000 0.000000 0.000000 1.000000 1.000000 1.000000 1.000000
2530060527 2000 -0.657286 3.034454 122.782089 0.000000 0.000000 0.000000 1.646342 -0.060976 -1.585366 0.019043 -0.003906 1.032227 0.000000 0.000000 0.000000 1.000000 1.000000 1.000000 1.000000
2530062527 2000 -0.657375 3.035093 122.775764 0.000000 0.000000 0.000000 1.646342 0.000000 -1.463415 0.016602 0.000000 1.020020 0.000000 0.000000 0.000000 1.000000 1.000000 1.000000 1.000000
2530064527 2000 -0.657105 3.034080 122.768768 0.000000 0.000000 0.000000 1.463415 0.182927 -1.829268 0.017090 -0.011719 1.024902 0.000000 0.000000 0.000000 1.000000 1.000000 1.000000 1.000000
2530066527 2000 -0.656274 3.034858 122.762230 0.000000 0.000000 0.000000 1.768293 0.182927 -1.585366 0.011719 -0.000977 1.020020 0.000000 0.000000 0.000000 1.000000 1.000000 1.000000 1.000000
2530068527 2000 -0.655610 3.033574 122.755714 0.000000 0.000000 0.000000 1.463415 0.121951 -1.585366 0.012207 -0.014160 1.028320 0.000000 0.000000 0.000000 1.000000 1.000000 1.000000 1.000000
2530070527 2000 -0.655691 3.033736 122.748634 0.000000 0.000000 0.000000 1.646342 -0.121951 -1.829268 0.014648 -0.004395 1.019043 0.000000 0.000000 0.000000 1.000000 1.000000 1.000000 1.000000
2530072527 2000 -0.656124 3.033815 122.741585 0.000000 0.000000 0.000000 1.524390 -0.182927 -1.829268 0.016602 -0.002930 1.011719 0.000000 0.000000 0.000000 1.000000 1.000000 1.000000 1.000000
2530074527 2000 -0.655531 3.034098 122.734810 0.000000 0.000000 0.000000 1.707317 0.243902 -1.707317 0.015137 -0.004395 1.025391 0.000000 0.000000 0.000000 1.000000 1.000000 1.000000 1.000000
2530076527 2000 -0.655702 3.034084 122.729019 0.000000 0.000000 0.000000 1.890244 0.000000 -1.219512 0.017090 -0.010254 1.020996 0.000000 0.000000 0.000000 1.000000 1.000000 1.000000 1.000000
2530078527 2000 -0.656587 3.034404 122.722214 0.000000 0.000000 0.000000 1.890244 0.000000 -1.707317 0.023926 -0.007324 1.018066 0.000000 0.000000 0.000000 1.000000 1.000000 1.000000 1.000000
2530080527 2000 -0.656386 3.033961 122.715660 0.000000 0.000000 0.000000 1.402439 0.060976 -1.585366 0.015137 -0.005371 1.016113 0.000000 0.000000 0.000000 1.000000 1.000000 1.000000 1.000000
2530082527 2000 -0.656432 3.032970 122.708763 0.000000 0.000000 0.000000 1.585366 0.060976 -1.768293 0.017578 -0.013672 1.020020 0.000000 0.000000 0.000000 1.000000 1.000000 1.000000 1.000000
2530084527 2000 -0.655940 3.033358 122.702217 0.000000 0.000000 0.000000 1.707317 0.121951 -1.585366 0.013672 -0.003418 1.020020 0.000000 0.000000 0.000000 1.000000 1.000000 1.000000 1.000000
2530086527 2000 -0.656302 3.033490 122.695564 0.000000 0.000000 0.000000 1.524390 0.121951 -1.646342 0.021484 -0.002441 1.023926 0.000000 0.000000 0.000000 1.000000 1.000000 1.000000 1.000000
2530088527 2000 -0.657262 3.032854 122.688255 0.000000 0.000000 0.000000 1.463415 -0.182927 -1.951220 0.021484 -0.008301 1.014648 0.000000 0.000000 0.000000 1.000000 1.000000 1.000000 1.000000
2530090527 2000 -0.657228 3.032563 122.681740 0.000000 0.000000 0.000000 1.585366 0.304878 -1.585366 0.020996 -0.007324 1.015625 0.000000 0.000000 0.000000 1.000000 1.000000 1.000000 1.000000
2530092527 2000 -0.657161 3.031984 122.674362 0.000000 0.000000 0.000000 1.463415 0.243902 -2.012195 0.020020 -0.007812 1.015625 0.000000 0.000000 0.000000 1.000000 1.000000 1.000000 1.000000
2530094527 2000 -0.656828 3.032130 122.667603 0.000000 0.000000 0.000000 1.829268 0.121951 -1.707317 0.015137 -0.007812 1.014648 0.000000 0.000000 0.000000 1.000000 1.000000 1.000000 1.000000
2530096527 2000 -0.657120 3.032792 122.660934 0.000000 0.000000 0.000000 1.951220 0.000000 -1.646342 0.018555 -0.005371 1.017578 0.000000 0.000000 0.000000 1.000000 1.000000 1.000000 1.000000
2530098527 2000 -0.656842 3.032862 122.653915 0.000000 0.000000 0.000000 1.707317 0.243902 -1.829268 0.018066 -0.006348 1.022461 0.000000 0.000000 0.000000 1.000000 1.000000 1.000000 1.000000
2530100527 2000 -0.656474 3.032422 122.646896 0.000000 0.000000 0.000000 1.585366 0.121951 -1.829268 0.015137 -0.008789 1.027832 0.000000 0.000000 0.000000 1.000000 1.000000 1.000000 1.000000
2530102527 2000 -0.655703 3.032558 122.639984 0.000000 0.000000 0.000000 1.768293 0.060976 -1.768293 0.010254 -0.006836 1.022461 0.000000 0.000000 0.000000 1.000000 1.000000 1.000000 1.000000
2530104527 2000 -0.655471 3.032072 122.632851 0.000000 0.000000 0.000000 1.646342 0.304878 -1.890244 0.019531 -0.010254 1.018066 0.000000 0.000000 0.000000 1.000000 1.000000 1.000000 1.000000
2530106527 2000 -0.655048 3.031707 122.626076 0.000000 0.000000 0.000000 1.463415 0.243902 -1.707317 0.016602 -0.005859 1.021973 0.000000 0.000000 0.000000 1.000000 1.000000 1.000000 1.000000
2530108527 2000 -0.655629 3.031771 122.619164 0.000000 0.000000 0.000000 1.707317 0.000000 -1.768293 0.020996 -0.006348 1.006348 0.000000 0.000000 0.000000 1.000000 1.000000 1.000000 1.000000
2530110527 2000 -0.655150 3.031108 122.612289 0.000000 0.000000 0.000000 1.585366 0.243902 -1.768293 0.016113 -0.010742 1.019043 0.000000 0.000000 0.000000 1.000000 1.000000 1.000000 1.000000
2530112527 2000 -0.655066 3.030991 122.605232 0.000000 0.000000 0.000000 1.341463 -0.060976 -1.829268 0.014160 -0.001465 1.012695 0.000000 0.000000 0.000000 1.000000 1.000000 1.000000 1.000000
2530114527 2000 -0.654614 3.031079 122.597687 0.000000 0.000000 0.000000 1.768293 0.000000 -2.073171 0.012207 -0.007324 1.015137 0.000000 0.000000 0.000000 1.000000 1.000000 1.000000 1.000000
2530116527 2000 -0.655948 3.030018 122.591019 0.000000 0.000000 0.000000 1.463415 -0.121951 -1.646342 0.025879 -0.012207 1.025391 0.000000 0.000000 0.000000 1.000000 1.000000 1.000000 1.000000
2530118527 2000 -0.655726 3.030769 122.583878 0.000000 0.000000 0.000000 1.585366 0.182927 -1.890244 0.017578 0.001953 1.025879 0.000000 0.000000 0.000000 1.000000 1.000000 1.000000 1.000000
2530120527 2000 -0.654870 3.031746 122.576736 0.000000 0.000000 0.000000 1.646342 0.365854 -1.890244 0.015137 0.002930 1.025879 0.000000 0.000000 0.000000 1.000000 1.000000 1.000000 1.000000
2530122527 2000 -0.654071 3.032448 122.570175 0.000000 0.000000 0.000000 1.646342 0.060976 -1.585366 0.009766 0.000488 1.018555 0.000000 0.000000 0.000000 1.000000 1.000000 1.000000 1.000000
2530124527 2000 -0.653953 3.032018 122.564026 0.000000 0.000000 0.000000 1.463415 0.060976 -1.402439 0.015625 -0.006348 1.014648 0.000000 0.000000 0.000000 1.000000 1.000000 1.000000 1.000000
2530126527 2000 -0.653885 3.032165 122.557228 0.000000 0.000000 0.000000 1.585366 0.182927 -1.707317 0.018555 -0.003418 1.014648 0.000000 0.000000 0.000000 1.000000 1.000000 1.000000 1.000000
2530128527 2000 -0.654597 3.032808 122.550095 0.000000 0.000000 0.000000 1.829268 0.121951 -1.890244 0.024902 -0.003418 1.026367 0.000000 0.000000 0.000000 1.000000 1.000000 1.000000 1.000000
2530130527 2000 -0.654119 3.033207 122.543549 0.000000 0.000000 0.000000 1.768293 0.121951 -1.585366 0.013672 -0.004395 1.013672 0.000000 0.000000 0.000000 1.000000 1.000000 1.000000 1.000000
2530132527 2000 -0.653713 3.033118 122.536896 0.000000 0.000000 0.000000 1.524390 0.060976 -1.646342 0.013184 -0.004395 1.006348 0.000000 0.000000 0.000000 1.000000 1.000000 1.000000 1.000000
2530134527 2000 -0.652864 3.033713 122.529739 0.000000 0.000000 0.000000 1.890244 0.182927 -1.890244 0.011719 -0.004883 1.014160 0.000000 0.000000 0.000000 1.000000 1.000000 1.000000 1.000000
2530136527 2000 -0.652742 3.033426 122.522964 0.000000 0.000000 0.000000 1.585366 0.121951 -1.707317 0.017090 -0.007324 1.022461 0.000000 0.000000 0.000000 1.000000 1.000000 1.000000 1.000000
2530138527 2000 -0.653454 3.033344 122.516037 0.000000 0.000000 0.000000 1.524390 0.000000 -1.768293 0.022461 -0.004395 1.021973 0.000000 0.000000 0.000000 1.000000 1.000000 1.000000 1.000000
2530140527 2000 -0.652515 3.033175 122.509361 0.000000 0.000000 0.000000 1.646342 -0.060976 -1.646342 0.006348 -0.007324 1.018066 0.000000 0.000000 0.000000 1.000000 1.000000 1.000000 1.000000
2530142527 2000 -0.652905 3.033737 122.502914 0.000000 0.000000 0.000000 1.768293 -0.121951 -1.524390 0.017090 -0.002930 1.020020 0.000000 0.000000 0.000000 1.000000 1.000000 1.000000 1.000000
2530144527 2000 -0.653443 3.033253 122.495888 0.000000 0.000000 0.000000 1.646342 0.000000 -1.829268 0.020996 -0.010254 1.023926 0.000000 0.000000 0.000000 1.000000 1.000000 1.000000 1.000000
2530146527 2000 -0.653201 3.033370 122.488625 0.000000 0.000000 0.000000 1.646342 0.182927 -1.951220 0.017578 -0.004883 1.036621 0.000000 0.000000 0.000000 1.000000 1.000000 1.000000 1.000000
2530148527 2000 -0.652662 3.033710 122.482582 0.000000 0.000000 0.000000 1.768293 0.243902 -1.341463 0.015137 -0.004883 1.019531 0.000000 0.000000 0.000000 1.000000 1.000000 1.000000 1.000000
2530150527 2000 -0.653486 3.033069 122.475807 0.000000 0.000000 0.000000 1.707317 0.060976 -1.707317 0.024414 -0.012695 1.018066 0.000000 0.000000 0.000000 1.000000 1.000000 1.000000 1.000000
2530152527 2000 -0.654347 3.033600 122.468529 0.000000 0.000000 0.000000 1.585366 0.121951 -1.951220 0.026367 0.000000 1.028809 0.000000 0.000000 0.000000 1.000000 1.000000 1.000000 1.000000
2530154527 2000 -0.654246 3.033937 122.461617 0.000000 0.000000 0.000000 1.707317 0.000000 -1.768293 0.015137 -0.003906 1.020020 0.000000 0.000000 0.000000 1.000000 1.000000 1.000000 1.000000
2530156527 2000 -0.653735 3.033860 122.454941 0.000000 0.000000 0.000000 1.585366 0.000000 -1.646342 0.011230 -0.005371 1.012207 0.000000 0.000000 0.000000 1.000000 1.000000 1.000000 1.000000
2530158527 2000 -0.652962 3.034128 122.447777 0.000000 0.000000 0.000000 1.646342 0.121951 -1.890244 0.011230 -0.003418 1.006836 0.000000 0.000000 0.000000 1.000000 1.000000 1.000000 1.000000
2530160527 2000 -0.652245 3.035003 122.441002 0.000000 0.000000 0.000000 1.707317 0.121951 -1.707317 0.011719 0.000977 1.021973 0.000000 0.000000 0.000000 1.000000 1.000000 1.000000 1.000000
2530162527 2000 -0.651628 3.034920 122.434105 0.000000 0.000000 0.000000 1.768293 0.121951 -1.768293 0.012695 -0.008789 1.024414 0.000000 0.000000 0.000000 1.000000 1.000000 1.000000 1.000000
2530164527 2000 -0.650451 3.034629 122.427559 0.000000 0.000000 0.000000 1.585366 0.060976 -1.585366 0.006348 -0.007324 1.024902 0.000000 0.000000 0.000000 1.000000 1.000000 1.000000 1.000000
2530166527 2000 -0.650160 3.034674 122.421005 0.000000 0.000000 0.000000 1.402439 0.000000 -1.585366 0.013184 -0.000977 1.020508 0.000000 0.000000 0.000000 1.000000 1.000000 1.000000 1.000000
2530168527 2000 -0.649939 3.034250 122.413956 0.000000 0.000000 0.000000 1.707317 -0.182927 -1.829268 0.010742 -0.010742 1.019531 0.000000 0.000000 0.000000 1.000000 1.000000 1.000000 1.000000
2530170527 2000 -0.650652 3.034673 122.407753 0.000000 0.000000 0.000000 1.890244 -0.060976 -1.402439 0.020996 -0.006348 1.022949 0.000000 0.000000 0.000000 1.000000 1.000000 1.000000 1.000000
2530172527 2000 -0.650300 3.035549 122.400719 0.000000 0.000000 0.000000 1.707317 0.121951 -1.829268 0.015137 0.000977 1.025879 0.000000 0.000000 0.000000 1.000000 1.000000 1.000000 1.000000
2530174527 2000 -0.650216 3.035078 122.394302 0.000000 0.000000 0.000000 1.524390 0.060976 -1.524390 0.016113 -0.007812 1.022461 0.000000 0.000000 0.000000 1.000000 1.000000 1.000000 1.000000
2530176527 2000 -0.649717 3.035135 122.387756 0.000000 0.000000 0.000000 1.463415 0.182927 -1.585366 0.014648 -0.001953 1.023926 0.000000 0.000000 0.000000 1.000000 1.000000 1.000000 1.000000
2530178527 2000 -0.649218 3.035141 122.381088 0.000000 0.000000 0.000000 1.707317 -0.060976 -1.646342 0.010254 -0.006836 1.020508 0.000000 0.000000 0.000000 1.000000 1.000000 1.000000 1.000000
2530180527 2000 -0.648810 3.034513 122.374069 0.000000 0.000000 0.000000 1.524390 0.182927 -1.829268 0.015625 -0.009277 1.020020 0.000000 0.000000 0.000000 1.000000 1.000000 1.000000 1.000000
2530182527 2000 -0.648431 3.034460 122.367798 0.000000 0.000000 0.000000 1.707317 0.243902 -1.463415 0.016602 -0.007324 1.019043 0.000000 0.000000 0.000000 1.000000 1.000000 1.000000 1.000000
2530184527 2000 -0.648054 3.034654 122.361252 0.000000 0.000000 0.000000 1.585366 0.182927 -1.585366 0.015625 -0.002930 1.018555 0.000000 0.000000 0.000000 1.000000 1.000000 1.000000 1.000000
2530186527 2000 -0.648151 3.034149 122.354202 0.000000 0.000000 0.000000 1.585366 -0.121951 -1.829268 0.014648 -0.009277 1.018555 0.000000 0.000000 0.000000 1.000000 1.000000 1.000000 1.000000
2530188527 2000 -0.648116 3.034857 122.347786 0.000000 0.000000 0.000000 1.707317 0.060976 -1.524390 0.016602 -0.000488 1.027832 0.000000 0.000000 0.000000 1.000000 1.000000 1.000000 1.000000
2530190527 2000 -0.648068 3.034389 122.341255 0.000000 0.000000 0.000000 1.524390 0.121951 -1.585366 0.017578 -0.007812 1.023926 0.000000 0.000000 0.000000 1.000000 1.000000 1.000000 1.000000
2530192527 2000 -0.648200 3.034436 122.334702 0.000000 0.000000 0.000000 1.646342 0.060976 -1.585366 0.018066 -0.005371 1.021484 0.000000 0.000000 0.000000 1.000000 1.000000 1.000000 1.000000
2530194527 2000 -0.648903 3.034427 122.327789 0.000000 0.000000 0.000000 1.646342 0.000000 -1.768293 0.021973 -0.005859 1.006348 0.000000 0.000000 0.000000 1.000000 1.000000 1.000000 1.000000
2530196527 2000 -0.648924 3.034654 122.320847 0.000000 0.000000 0.000000 1.707317 -0.060976 -1.768293 0.015137 -0.004883 1.027344 0.000000 0.000000 0.000000 1.000000 1.000000 1.000000 1.000000
2530198527 2000 -0.648563 3.033898 122.313965 0.000000 0.000000 0.000000 1.463415 0.060976 -1.768293 0.013672 -0.009277 1.011230 0.000000 0.000000 0.000000 1.000000 1.000000 1.000000 1.000000
2530200527 2000 -0.647468 3.034170 122.306587 0.000000 0.000000 0.000000 1.646342 0.304878 -2.012195 0.011719 -0.003418 1.013672 0.000000 0.000000 0.000000 1.000000 1.000000 1.000000 1.000000
2530202527 2000 -0.647228 3.034055 122.299812 0.000000 0.000000 0.000000 1.890244 0.000000 -1.707317 0.013672 -0.011230 1.018555 0.000000 0.000000 0.000000 1.000000 1.000000 1.000000 1.000000
2530204527 2000 -0.647518 3.034011 122.292747 0.000000 0.000000 0.000000 1.707317 0.000000 -1.829268 0.018555 -0.007324 1.018555 0.000000 0.000000 0.000000 1.000000 1.000000 1.000000 1.000000
2530206527 2000 -0.646369 3.035242 122.285713 0.000000 0.000000 0.000000 1.829268 0.121951 -1.829268 0.007812 0.001953 1.017578 0.000000 0.000000 0.000000 1.000000 1.000000 1.000000 1.000000
2530208527 2000 -0.645976 3.034903 122.279305 0.000000 0.000000 0.000000 1.646342 0.060976 -1.524390 0.013184 -0.008789 1.017090 0.000000 0.000000 0.000000 1.000000 1.000000 1.000000 1.000000
2530210527 2000 -0.645805 3.035047 122.272369 0.000000 0.000000 0.000000 1.585366 -0.121951 -1.768293 0.012207 -0.003418 1.023926 0.000000 0.000000 0.000000 1.000000 1.000000 1.000000 1.000000
2530212527 2000 -0.645960 3.035186 122.265823 0.000000 0.000000 0.000000 1.585366 0.000000 -1.585366 0.017090 -0.003418 1.018555 0.000000 0.000000 0.000000 1.000000 1.000000 1.000000 1.000000
2530214527 2000 -0.646214 3.034673 122.259399 0.000000 0.000000 0.000000 1.585366 0.060976 -1.524390 0.019043 -0.009277 1.020508 0.000000 0.000000 0.000000 1.000000 1.000000 1.000000 1.000000
2530216527 2000 -0.645944 3.035076 122.252365 0.000000 0.000000 0.000000 1.768293 0.060976 -1.829268 0.014648 -0.004395 1.021973 0.000000 0.000000 0.000000 1.000000 1.000000 1.000000 1.000000
2530218527 2000 -0.645726 3.034413 122.245453 0.000000 0.000000 0.000000 1.646342 0.182927 -1.768293 0.017090 -0.011719 1.013184 0.000000 0.000000 0.000000 1.000000 1.000000 1.000000 1.000000
2530220527 2000 -0.645709 3.035677 122.238556 0.000000 0.000000 0.000000 1.768293 0.121951 -1.768293 0.018066 0.003418 1.027832 0.000000 0.000000 0.000000 1.000000 1.000000 1.000000 1.000000
2530222527 2000 -0.645302 3.034366 122.231903 0.000000 0.000000 0.000000 1.646342 0.060976 -1.646342 0.013184 -0.017578 1.019043 0.000000 0.000000 0.000000 1.000000 1.000000 1.000000 1.000000
2530224527 2000 -0.645752 3.035459 122.225098 0.000000 0.000000 0.000000 1.707317 0.121951 -1.707317 0.021973 0.002930 1.015625 0.000000 0.000000 0.000000 1.000000 1.000000 1.000000 1.000000
2530226527 2000 -0.645584 3.034864 122.218338 0.000000 0.000000 0.000000 1.463415 0.243902 -1.707317 0.018555 -0.007812 1.012207 0.000000 0.000000 0.000000 1.000000 1.000000 1.000000 1.000000
2530228527 2000 -0.646431 3.034508 122.211266 0.000000 0.000000 0.000000 1.524390 -0.304878 -1.829268 0.018066 -0.006836 1.018555 0.000000 0.000000 0.000000 1.000000 1.000000 1.000000 1.000000
2530230527 2000 -0.647410 3.034023 122.204842 0.000000 0.000000 0.000000 1.707317 0.000000 -1.524390 0.024414 -0.011230 1.017578 0.000000 0.000000 0.000000 1.000000 1.000000 1.000000 1.000000
2530232527 2000 -0.647361 3.034289 122.198189 0.000000 0.000000 0.000000 1.890244 0.121951 -1.646342 0.017578 -0.007812 1.021484 0.000000 0.000000 0.000000 1.000000 1.000000 1.000000 1.000000
2530234527 2000 -0.646687 3.034285 122.191399 0.000000 0.000000 0.000000 1.646342 0.182927 -1.707317 0.013184 -0.005859 1.028320 0.000000 0.000000 0.000000 1.000000 1.000000 1.000000 1.000000
2530236527 2000 -0.646731 3.034178 122.184868 0.000000 0.000000 0.000000 1.707317 0.060976 -1.585366 0.017090 -0.007812 1.012207 0.000000 0.000000 0.000000 1.000000 1.000000 1.000000 1.000000
2530238527 2000 -0.647449 3.034415 122.177467 0.000000 0.000000 0.000000 1.951220 -0.121951 -2.012195 0.020508 -0.009277 1.025391 0.000000 0.000000 0.000000 1.000000 1.000000 1.000000 1.000000
2530240527 2000 -0.648565 3.033840 122.170555 0.000000 0.000000 0.000000 1.768293 0.000000 -1.768293 0.025879 -0.013184 1.016602 0.000000 0.000000 0.000000 1.000000 1.000000 1.000000 1.000000
2530242527 2000 -0.648541 3.034247 122.163612 0.000000 0.000000 0.000000 1.524390 0.121951 -1.768293 0.017578 0.000000 1.000977 0.000000 0.000000 0.000000 1.000000 1.000000 1.000000 1.000000
2530244527 2000 -0.648358 3.033846 122.156837 0.000000 0.000000 0.000000 1.585366 0.000000 -1.707317 0.014160 -0.008301 1.015137 0.000000 0.000000 0.000000 1.000000 1.000000 1.000000 1.000000
2530246527 2000 -0.648588 3.034086 122.150177 0.000000 0.000000 0.000000 1.768293 0.060976 -1.646342 0.019043 -0.005859 1.022949 0.000000 0.000000 0.000000 1.000000 1.000000 1.000000 1.000000
2530248527 2000 -0.648009 3.034311 122.143265 0.000000 0.000000 0.000000 1.463415 0.000000 -1.768293 0.010742 -0.000488 1.022461 0.000000 0.000000 0.000000 1.000000 1.000000 1.000000 1.000000
2530250527 2000 -0.647098 3.034543 122.136841 0.000000 0.000000 0.000000 1.768293 0.182927 -1.524390 0.010742 -0.005859 1.016113 0.000000 0.000000 0.000000 1.000000 1.000000 1.000000 1.000000
2530252527 2000 -0.646760 3.034776 122.130035 0.000000 0.000000 0.000000 1.768293 0.000000 -1.707317 0.012695 -0.005859 1.010742 0.000000 0.000000 0.000000 1.000000 1.000000 1.000000 1.000000
2530254527 2000 -0.646463 3.035261 122.123032 0.000000 0.000000 0.000000 1.890244 0.182927 -1.829268 0.016602 -0.005859 1.021973 0.000000 0.000000 0.000000 1.000000 1.000000 1.000000 1.000000
2530256527 2000 -0.645701 3.035953 122.116364 0.000000 0.000000 0.000000 1.646342 0.121951 -1.646342 0.011230 0.000488 1.030273 0.000000 0.000000 0.000000 1.000000 1.000000 1.000000 1.000000
2530258527 2000 -0.645389 3.035940 122.110069 0.000000 0.000000 0.000000 1.890244 -0.060976 -1.463415 0.011719 -0.010254 1.021973 0.000000 0.000000 0.000000 1.000000 1.000000 1.000000 1.000000
2530260527 2000 -0.645160 3.035934 122.102882 0.000000 0.000000 0.000000 1.646342 -0.121951 -1.890244 0.011719 -0.005859 1.018066 0.000000 0.000000 0.000000 1.000000 1.000000 1.000000 1.000000
2530262527 2000 -0.644688 3.034705 122.095985 0.000000 0.000000 0.000000 1.524390 0.060976 -1.768293 0.012695 -0.014648 1.018066 0.000000 0.000000 0.000000 1.000000 1.000000 1.000000 1.000000
2530264527 2000 -0.644573 3.034418 122.089088 0.000000 0.000000 0.000000 1.585366 0.121951 -1.768293 0.017090 -0.007324 1.024414 0.000000 0.000000 0.000000 1.000000 1.000000 1.000000 1.000000
2530266527 2000 -0.644622 3.033999 122.082390 0.000000 0.000000 0.000000 1.768293 0.000000 -1.646342 0.016113 -0.011719 1.015137 0.000000 0.000000 0.000000 1.000000 1.000000 1.000000 1.000000
2530268527 2000 -0.645247 3.033189 122.075394 0.000000 0.000000 0.000000 1.707317 0.060976 -1.829268 0.022461 -0.014160 1.011719 0.000000 0.000000 0.000000 1.000000 1.000000 1.000000 1.000000
2530270527 2000 -0.645209 3.034039 122.068359 0.000000 0.000000 0.000000 1.585366 0.243902 -1.829268 0.020020 0.002930 1.021973 0.000000 0.000000 0.000000 1.000000 1.000000 1.000000 1.000000
2530272527 2000 -0.644617 3.034854 122.061913 0.000000 0.000000 0.000000 1.707317 -0.060976 -1.524390 0.009277 0.000488 1.026367 0.000000 0.000000 0.000000 1.000000 1.000000 1.000000 1.000000
2530274527 2000 -0.644685 3.034453 122.055115 0.000000 0.000000 0.000000 1.524390 -0.060976 -1.707317 0.015625 -0.007324 1.040039 0.000000 0.000000 0.000000 1.000000 1.000000 1.000000 1.000000
2530276527 2000 -0.644151 3.034298 122.048462 0.000000 0.000000 0.000000 1.463415 0.304878 -1.646342 0.016602 -0.003906 1.031738 0.000000 0.000000 0.000000 1.000000 1.000000 1.000000 1.000000
2530278527 2000 -0.644345 3.035281 122.041435 0.000000 0.000000 0.000000 1.707317 0.121951 -1.829268 0.020020 0.001953 1.028320 0.000000 0.000000 0.000000 1.000000 1.000000 1.000000 1.000000
2530280527 2000 -0.645232 3.035206 122.034500 0.000000 0.000000 0.000000 1.585366 -0.182927 -1.768293 0.020508 -0.005371 1.017090 0.000000 0.000000 0.000000 1.000000 1.000000 1.000000 1.000000
2530282527 2000 -0.644711 3.034718 122.027603 0.000000 0.000000 0.000000 1.402439 0.182927 -1.768293 0.014648 -0.005859 1.032715 0.000000 0.000000 0.000000 1.000000 1.000000 1.000000 1.000000
