#time h roll pitch yaw rroll rpitch ryaw gx gy gz ax ay az mx my mz R L F B 
4117805453 4 -1.039813 1.433599 -159.944839 0.000000 0.000000 0.000000 0.548781 0.121951 -0.060976 0.025391 -0.010742 1.027832 0.000000 0.000000 0.000000 1.000000 1.000000 1.000000 1.000000
4117807453 2000 -1.039415 1.433673 -159.945511 0.000000 0.000000 0.000000 0.792683 0.182927 -0.365854 0.020996 -0.000977 1.025879 0.000000 0.000000 0.000000 1.000000 1.000000 1.000000 1.000000
4117809453 2000 -1.039359 1.434622 -159.945221 0.000000 0.000000 0.000000 0.914634 0.243902 0.121951 0.024902 0.004883 1.022949 0.000000 0.000000 0.000000 1.000000 1.000000 1.000000 1.000000
4117811453 2000 -1.039529 1.434620 -159.944809 0.000000 0.000000 0.000000 0.792683 -0.060976 0.182927 0.021484 -0.001465 1.026367 0.000000 0.000000 0.000000 1.000000 1.000000 1.000000 1.000000
4117813453 2000 -1.040465 1.434582 -159.944366 0.000000 0.000000 0.000000 0.853659 0.182927 0.182927 0.033203 -0.002930 1.038086 0.000000 0.000000 0.000000 1.000000 1.000000 1.000000 1.000000
4117815453 2000 -1.040733 1.434668 -159.944458 0.000000 0.000000 0.000000 0.670732 0.121951 -0.060976 0.025879 0.001465 1.028809 0.000000 0.000000 0.000000 1.000000 1.000000 1.000000 1.000000
4117817453 2000 -1.041417 1.434941 -159.944275 0.000000 0.000000 0.000000 0.792683 0.060976 0.060976 0.028320 0.000977 1.022461 0.000000 0.000000 0.000000 1.000000 1.000000 1.000000 1.000000
4117819453 2000 -1.041540 1.434033 -159.943726 0.000000 0.000000 0.000000 0.609756 0.121951 0.243902 0.024414 -0.006348 1.028320 0.000000 0.000000 0.000000 1.000000 1.000000 1.000000 1.000000
4117821453 2000 -1.042372 1.434381 -159.944305 0.000000 0.000000 0.000000 0.609756 -0.121951 -0.304878 0.026855 0.004883 1.034668 0.000000 0.000000 0.000000 1.000000 1.000000 1.000000 1.000000
4117823453 2000 -1.042830 1.433546 -159.943512 0.000000 0.000000 0.000000 0.487805 0.182927 0.365854 0.028320 -0.003418 1.020508 0.000000 0.000000 0.000000 1.000000 1.000000 1.000000 1.000000
4117825453 2000 -1.042050 1.433117 -159.943329 0.000000 0.000000 0.000000 0.548781 0.243902 0.060976 0.018555 -0.000977 1.028809 0.000000 0.000000 0.000000 1.000000 1.000000 1.000000 1.000000
4117827453 2000 -1.041645 1.432516 -159.943283 0.000000 0.000000 0.000000 0.487805 0.000000 0.000000 0.017578 -0.001465 1.030762 0.000000 0.000000 0.000000 1.000000 1.000000 1.000000 1.000000
4117829453 2000 -1.041729 1.431575 -159.943329 0.000000 0.000000 0.000000 0.609756 0.121951 -0.060976 0.024414 -0.006836 1.037109 0.000000 0.000000 0.000000 1.000000 1.000000 1.000000 1.000000
4117831453 2000 -1.041421 1.431572 -159.943298 0.000000 0.000000 0.000000 0.731707 0.121951 0.000000 0.020508 -0.000488 1.022461 0.000000 0.000000 0.000000 1.000000 1.000000 1.000000 1.000000
4117833465 2012 -1.040963 1.432340 -159.943253 0.000000 0.000000 0.000000 0.792683 0.000000 0.000000 0.017090 0.005371 1.029297 0.000000 0.000000 0.000000 1.000000 1.000000 1.000000 1.000000
4117835465 2000 -1.040905 1.433223 -159.943436 0.000000 0.000000 0.000000 0.853659 0.243902 -0.121951 0.025391 0.005371 1.038086 0.000000 0.000000 0.000000 1.000000 1.000000 1.000000 1.000000
4117837465 2000 -1.041016 1.433441 -159.943161 0.000000 0.000000 0.000000 0.792683 0.121951 0.121951 0.024414 0.000488 1.030762 0.000000 0.000000 0.000000 1.000000 1.000000 1.000000 1.000000
4117839465 2000 -1.042111 1.434291 -159.943481 0.000000 0.000000 0.000000 0.914634 0.000000 -0.182927 0.031250 0.003906 1.029297 0.000000 0.000000 0.000000 1.000000 1.000000 1.000000 1.000000
4117841465 2000 -1.042332 1.433987 -159.943558 0.000000 0.000000 0.000000 0.609756 -0.060976 -0.060976 0.021973 -0.000977 1.020020 0.000000 0.000000 0.000000 1.000000 1.000000 1.000000 1.000000
4117843465 2000 -1.042327 1.434151 -159.943390 0.000000 0.000000 0.000000 0.548781 0.182927 0.060976 0.024414 0.004395 1.026367 0.000000 0.000000 0.000000 1.000000 1.000000 1.000000 1.000000
4117845465 2000 -1.042191 1.434314 -159.943100 0.000000 0.000000 0.000000 0.792683 -0.121951 0.121951 0.017578 0.000000 1.020020 0.000000 0.000000 0.000000 1.000000 1.000000 1.000000 1.000000
4117847465 2000 -1.042262 1.434585 -159.943192 0.000000 0.000000 0.000000 0.548781 0.000000 -0.060976 0.021973 0.005371 1.031738 0.000000 0.000000 0.000000 1.000000 1.000000 1.000000 1.000000
4117849465 2000 -1.042225 1.434244 -159.943375 0.000000 0.000000 0.000000 0.670732 0.243902 -0.121951 0.025391 -0.002441 1.029785 0.000000 0.000000 0.000000 1.000000 1.000000 1.000000 1.000000
4117851465 2000 -1.042120 1.434198 -159.943314 0.000000 0.000000 0.000000 0.792683 0.182927 0.000000 0.023926 -0.001953 1.042969 0.000000 0.000000 0.000000 1.000000 1.000000 1.000000 1.000000
4117853465 2000 -1.041496 1.434009 -159.943161 0.000000 0.000000 0.000000 0.426829 0.060976 0.060976 0.016602 0.003418 1.026367 0.000000 0.000000 0.000000 1.000000 1.000000 1.000000 1.000000
4117855465 2000 -1.041256 1.434313 -159.943954 0.000000 0.000000 0.000000 0.609756 0.182927 -0.426829 0.022461 0.004395 1.024902 0.000000 0.000000 0.000000 1.000000 1.000000 1.000000 1.000000
4117857465 2000 -1.040967 1.434365 -159.943542 0.000000 0.000000 0.000000 0.792683 0.304878 0.182927 0.023926 -0.000977 1.023926 0.000000 0.000000 0.000000 1.000000 1.000000 1.000000 1.000000
4117859465 2000 -1.041893 1.434516 -159.943359 0.000000 0.000000 0.000000 0.731707 0.060976 0.060976 0.030762 0.000977 1.031250 0.000000 0.000000 0.000000 1.000000 1.000000 1.000000 1.000000
4117861465 2000 -1.041958 1.434303 -159.943939 0.000000 0.000000 0.000000 0.731707 0.000000 -0.304878 0.021973 -0.002441 1.029785 0.000000 0.000000 0.000000 1.000000 1.000000 1.000000 1.000000
4117863465 2000 -1.042066 1.434089 -159.943756 0.000000 0.000000 0.000000 0.792683 0.000000 0.060976 0.021973 -0.003418 1.019531 0.000000 0.000000 0.000000 1.000000 1.000000 1.000000 1.000000
4117865465 2000 -1.042539 1.433749 -159.944077 0.000000 0.000000 0.000000 0.670732 -0.060976 -0.182927 0.024414 -0.002441 1.024902 0.000000 0.000000 0.000000 1.000000 1.000000 1.000000 1.000000
4117867465 2000 -1.042819 1.432695 -159.943634 0.000000 0.000000 0.000000 0.670732 -0.060976 0.182927 0.022461 -0.008789 1.023438 0.000000 0.000000 0.000000 1.000000 1.000000 1.000000 1.000000
4117869465 2000 -1.043605 1.432223 -159.943222 0.000000 0.000000 0.000000 0.609756 0.060976 0.182927 0.029297 -0.002441 1.025391 0.000000 0.000000 0.000000 1.000000 1.000000 1.000000 1.000000
4117871465 2000 -1.043635 1.431894 -159.943161 0.000000 0.000000 0.000000 0.731707 0.304878 0.000000 0.026855 -0.003418 1.020996 0.000000 0.000000 0.000000 1.000000 1.000000 1.000000 1.000000
4117873465 2000 -1.044077 1.431124 -159.943314 0.000000 0.000000 0.000000 0.914634 0.121951 -0.121951 0.027344 -0.010742 1.021484 0.000000 0.000000 0.000000 1.000000 1.000000 1.000000 1.000000
4117875465 2000 -1.043536 1.430431 -159.943130 0.000000 0.000000 0.000000 0.792683 0.182927 0.060976 0.019531 -0.007812 1.023438 0.000000 0.000000 0.000000 1.000000 1.000000 1.000000 1.000000
4117877465 2000 -1.043123 1.430207 -159.943451 0.000000 0.000000 0.000000 0.670732 -0.060976 -0.182927 0.016602 -0.001465 1.036621 0.000000 0.000000 0.000000 1.000000 1.000000 1.000000 1.000000
4117879465 2000 -1.044435 1.430649 -159.943771 0.000000 0.000000 0.000000 0.731707 0.121951 -0.182927 0.035156 0.003418 1.020020 0.000000 0.000000 0.000000 1.000000 1.000000 1.000000 1.000000
4117881465 2000 -1.044764 1.430920 -159.942993 0.000000 0.000000 0.000000 0.792683 0.121951 0.365854 0.025879 0.000977 1.011719 0.000000 0.000000 0.000000 1.000000 1.000000 1.000000 1.000000
4117883465 2000 -1.044687 1.430900 -159.943420 0.000000 0.000000 0.000000 0.609756 0.182927 -0.243902 0.023926 0.001465 1.025391 0.000000 0.000000 0.000000 1.000000 1.000000 1.000000 1.000000
4117885465 2000 -1.044585 1.430871 -159.943497 0.000000 0.000000 0.000000 0.609756 0.304878 -0.060976 0.025879 0.001465 1.027832 0.000000 0.000000 0.000000 1.000000 1.000000 1.000000 1.000000
4117887465 2000 -1.043945 1.431129 -159.943558 0.000000 0.000000 0.000000 0.914634 0.243902 -0.060976 0.019531 -0.001465 1.008789 0.000000 0.000000 0.000000 1.000000 1.000000 1.000000 1.000000
4117889465 2000 -1.043665 1.430665 -159.943359 0.000000 0.000000 0.000000 0.609756 0.365854 0.060976 0.025391 -0.002441 1.031250 0.000000 0.000000 0.000000 1.000000 1.000000 1.000000 1.000000
4117891465 2000 -1.044357 1.430766 -159.943069 0.000000 0.000000 0.000000 0.731707 0.060976 0.121951 0.028809 0.000488 1.036621 0.000000 0.000000 0.000000 1.000000 1.000000 1.000000 1.000000
4117893465 2000 -1.044799 1.430210 -159.943008 0.000000 0.000000 0.000000 0.426829 0.182927 0.000000 0.028320 0.000000 1.018555 0.000000 0.000000 0.000000 1.000000 1.000000 1.000000 1.000000
4117895465 2000 -1.044433 1.430436 -159.942825 0.000000 0.000000 0.000000 0.792683 0.243902 0.060976 0.022461 0.000488 1.034180 0.000000 0.000000 0.000000 1.000000 1.000000 1.000000 1.000000
4117897465 2000 -1.043999 1.430149 -159.942657 0.000000 0.000000 0.000000 0.670732 -0.060976 0.060976 0.016113 -0.001953 1.023438 0.000000 0.000000 0.000000 1.000000 1.000000 1.000000 1.000000
4117899465 2000 -1.044821 1.430563 -159.942749 0.000000 0.000000 0.000000 0.609756 0.000000 -0.060976 0.028320 0.005371 1.013184 0.000000 0.000000 0.000000 1.000000 1.000000 1.000000 1.000000
4117901465 2000 -1.044750 1.431333 -159.943192 0.000000 0.000000 0.000000 0.731707 0.243902 -0.243902 0.024902 0.006348 1.017578 0.000000 0.000000 0.000000 1.000000 1.000000 1.000000 1.000000
4117903465 2000 -1.044654 1.430670 -159.943146 0.000000 0.000000 0.000000 0.670732 0.060976 0.000000 0.021484 -0.005371 1.027832 0.000000 0.000000 0.000000 1.000000 1.000000 1.000000 1.000000
4117905465 2000 -1.045761 1.430917 -159.943100 0.000000 0.000000 0.000000 0.609756 -0.060976 0.000000 0.029785 0.003906 1.013672 0.000000 0.000000 0.000000 1.000000 1.000000 1.000000 1.000000
4117907465 2000 -1.045635 1.430400 -159.943039 0.000000 0.000000 0.000000 0.609756 0.304878 0.000000 0.025391 -0.002930 1.017090 0.000000 0.000000 0.000000 1.000000 1.000000 1.000000 1.000000
4117909465 2000 -1.046602 1.429378 -159.942871 0.000000 0.000000 0.000000 0.548781 -0.182927 0.060976 0.026367 -0.006348 1.015137 0.000000 0.000000 0.000000 1.000000 1.000000 1.000000 1.000000
4117911465 2000 -1.046075 1.430156 -159.943161 0.000000 0.000000 0.000000 1.036585 0.243902 -0.182927 0.020996 0.000977 1.027344 0.000000 0.000000 0.000000 1.000000 1.000000 1.000000 1.000000
4117913465 2000 -1.045989 1.430011 -159.943359 0.000000 0.000000 0.000000 0.792683 0.060976 -0.121951 0.021484 -0.002930 1.019531 0.000000 0.000000 0.000000 1.000000 1.000000 1.000000 1.000000
4117915465 2000 -1.046945 1.429170 -159.943802 0.000000 0.000000 0.000000 0.548781 0.121951 -0.243902 0.032227 -0.004883 1.026367 0.000000 0.000000 0.000000 1.000000 1.000000 1.000000 1.000000
4117917465 2000 -1.047238 1.428852 -159.943985 0.000000 0.000000 0.000000 0.731707 0.000000 -0.121951 0.023926 -0.003418 1.024414 0.000000 0.000000 0.000000 1.000000 1.000000 1.000000 1.000000
4117919465 2000 -1.046964 1.427620 -159.943802 0.000000 0.000000 0.000000 0.548781 0.182927 0.060976 0.021973 -0.008301 1.021973 0.000000 0.000000 0.000000 1.000000 1.000000 1.000000 1.000000
4117921465 2000 -1.046935 1.427920 -159.943756 0.000000 0.000000 0.000000 0.609756 0.000000 0.000000 0.020996 0.004395 1.025879 0.000000 0.000000 0.000000 1.000000 1.000000 1.000000 1.000000
4117923465 2000 -1.046799 1.428055 -159.943451 0.000000 0.000000 0.000000 0.609756 0.304878 0.121951 0.025391 0.002930 1.021973 0.000000 0.000000 0.000000 1.000000 1.000000 1.000000 1.000000
4117925465 2000 -1.047232 1.428017 -159.943268 0.000000 0.000000 0.000000 0.792683 0.365854 0.060976 0.031738 -0.001953 1.024902 0.000000 0.000000 0.000000 1.000000 1.000000 1.000000 1.000000
4117927465 2000 -1.046992 1.428513 -159.943451 0.000000 0.000000 0.000000 0.975610 0.304878 -0.121951 0.024414 -0.000488 1.015625 0.000000 0.000000 0.000000 1.000000 1.000000 1.000000 1.000000
4117929465 2000 -1.046902 1.427900 -159.942886 0.000000 0.000000 0.000000 0.670732 0.304878 0.243902 0.025879 -0.004883 1.027344 0.000000 0.000000 0.000000 1.000000 1.000000 1.000000 1.000000
4117931465 2000 -1.046868 1.428579 -159.942596 0.000000 0.000000 0.000000 0.609756 0.365854 0.121951 0.027344 0.007812 1.019531 0.000000 0.000000 0.000000 1.000000 1.000000 1.000000 1.000000
4117933465 2000 -1.046247 1.428818 -159.942902 0.000000 0.000000 0.000000 0.792683 0.243902 -0.182927 0.020020 0.000488 1.020508 0.000000 0.000000 0.000000 1.000000 1.000000 1.000000 1.000000
4117935465 2000 -1.046114 1.428518 -159.942719 0.000000 0.000000 0.000000 0.853659 0.121951 0.060976 0.021973 -0.005371 1.014648 0.000000 0.000000 0.000000 1.000000 1.000000 1.000000 1.000000
4117937465 2000 -1.047160 1.428898 -159.943298 0.000000 0.000000 0.000000 0.914634 -0.060976 -0.304878 0.029785 -0.000488 1.027344 0.000000 0.000000 0.000000 1.000000 1.000000 1.000000 1.000000
4117939465 2000 -1.046802 1.429076 -159.943130 0.000000 0.000000 0.000000 0.609756 -0.121951 0.060976 0.016113 0.003418 1.046875 0.000000 0.000000 0.000000 1.000000 1.000000 1.000000 1.000000
4117941465 2000 -1.046652 1.428856 -159.942566 0.000000 0.000000 0.000000 0.731707 0.426829 0.243902 0.027832 -0.002441 1.038086 0.000000 0.000000 0.000000 1.000000 1.000000 1.000000 1.000000
4117943465 2000 -1.047094 1.428446 -159.942886 0.000000 0.000000 0.000000 0.548781 0.121951 -0.182927 0.027344 -0.000977 1.018555 0.000000 0.000000 0.000000 1.000000 1.000000 1.000000 1.000000
4117945465 2000 -1.047434 1.428399 -159.943176 0.000000 0.000000 0.000000 0.975610 0.121951 -0.182927 0.026367 -0.005371 1.016113 0.000000 0.000000 0.000000 1.000000 1.000000 1.000000 1.000000
4117947465 2000 -1.047630 1.428321 -159.943130 0.000000 0.000000 0.000000 0.609756 0.182927 0.000000 0.026367 0.000977 1.026367 0.000000 0.000000 0.000000 1.000000 1.000000 1.000000 1.000000
4117949465 2000 -1.048217 1.428532 -159.942734 0.000000 0.000000 0.000000 0.731707 -0.121951 0.182927 0.024414 0.001465 1.031250 0.000000 0.000000 0.000000 1.000000 1.000000 1.000000 1.000000
4117951465 2000 -1.048484 1.428479 -159.942535 0.000000 0.000000 0.000000 0.731707 0.182927 0.060976 0.026855 -0.000977 1.020996 0.000000 0.000000 0.000000 1.000000 1.000000 1.000000 1.000000
4117953465 2000 -1.047327 1.429421 -159.942383 0.000000 0.000000 0.000000 0.853659 0.182927 0.060976 0.014160 0.005859 1.030762 0.000000 0.000000 0.000000 1.000000 1.000000 1.000000 1.000000
4117955465 2000 -1.047736 1.428475 -159.941940 0.000000 0.000000 0.000000 0.670732 0.182927 0.182927 0.027832 -0.007812 1.013184 0.000000 0.000000 0.000000 1.000000 1.000000 1.000000 1.000000
4117957465 2000 -1.047908 1.428653 -159.941895 0.000000 0.000000 0.000000 0.792683 0.121951 0.000000 0.025391 0.000000 1.040527 0.000000 0.000000 0.000000 1.000000 1.000000 1.000000 1.000000
4117959465 2000 -1.047903 1.429159 -159.941833 0.000000 0.000000 0.000000 0.792683 0.243902 0.000000 0.025391 0.002930 1.015625 0.000000 0.000000 0.000000 1.000000 1.000000 1.000000 1.000000
4117961465 2000 -1.046929 1.428229 -159.941772 0.000000 0.000000 0.000000 0.426829 0.304878 0.000000 0.018066 -0.003418 1.031738 0.000000 0.000000 0.000000 1.000000 1.000000 1.000000 1.000000
4117963465 2000 -1.047412 1.427628 -159.941711 0.000000 0.000000 0.000000 0.670732 0.060976 0.000000 0.026855 -0.004883 1.030762 0.000000 0.000000 0.000000 1.000000 1.000000 1.000000 1.000000
4117965465 2000 -1.046792 1.427504 -159.941895 0.000000 0.000000 0.000000 0.853659 0.182927 -0.121951 0.019043 -0.003906 1.027832 0.000000 0.000000 0.000000 1.000000 1.000000 1.000000 1.000000
4117967465 2000 -1.047095 1.428566 -159.941605 0.000000 0.000000 0.000000 0.914634 0.121951 0.121951 0.026367 0.005859 1.034180 0.000000 0.000000 0.000000 1.000000 1.000000 1.000000 1.000000
4117969465 2000 -1.047469 1.428362 -159.941315 0.000000 0.000000 0.000000 0.792683 -0.060976 0.121951 0.023438 -0.003418 1.023926 0.000000 0.000000 0.000000 1.000000 1.000000 1.000000 1.000000
4117971465 2000 -1.047339 1.428974 -159.941147 0.000000 0.000000 0.000000 0.792683 0.060976 0.060976 0.020996 0.003906 1.018066 0.000000 0.000000 0.000000 1.000000 1.000000 1.000000 1.000000
4117973465 2000 -1.047400 1.430187 -159.941833 0.000000 0.000000 0.000000 0.792683 0.426829 -0.365854 0.029785 0.009277 1.028320 0.000000 0.000000 0.000000 1.000000 1.000000 1.000000 1.000000
4117975465 2000 -1.048037 1.430673 -159.942169 0.000000 0.000000 0.000000 0.731707 -0.060976 -0.182927 0.026367 0.003906 1.040039 0.000000 0.000000 0.000000 1.000000 1.000000 1.000000 1.000000
4117977465 2000 -1.047947 1.431176 -159.941757 0.000000 0.000000 0.000000 0.853659 0.000000 0.182927 0.020508 0.001953 1.032715 0.000000 0.000000 0.000000 1.000000 1.000000 1.000000 1.000000
4117979465 2000 -1.048509 1.431326 -159.941833 0.000000 0.000000 0.000000 0.914634 0.243902 -0.060976 0.030762 -0.002441 1.024414 0.000000 0.000000 0.000000 1.000000 1.000000 1.000000 1.000000
4117981465 2000 -1.048366 1.431166 -159.942001 0.000000 0.000000 0.000000 0.731707 0.243902 -0.121951 0.024414 -0.001953 1.023926 0.000000 0.000000 0.000000 1.000000 1.000000 1.000000 1.000000
4117983465 2000 -1.048204 1.430633 -159.942429 0.000000 0.000000 0.000000 0.731707 0.060976 -0.243902 0.020996 -0.005371 1.024902 0.000000 0.000000 0.000000 1.000000 1.000000 1.000000 1.000000
4117985465 2000 -1.048014 1.431637 -159.942261 0.000000 0.000000 0.000000 0.853659 0.121951 0.060976 0.021484 0.006348 1.013672 0.000000 0.000000 0.000000 1.000000 1.000000 1.000000 1.000000
4117987465 2000 -1.048174 1.431397 -159.942581 0.000000 0.000000 0.000000 0.609756 0.121951 -0.182927 0.024902 -0.000488 1.021484 0.000000 0.000000 0.000000 1.000000 1.000000 1.000000 1.000000
4117989465 2000 -1.047530 1.431703 -159.942413 0.000000 0.000000 0.000000 0.914634 0.060976 0.060976 0.016602 -0.000977 1.030762 0.000000 0.000000 0.000000 1.000000 1.000000 1.000000 1.000000
4117991465 2000 -1.046521 1.432185 -159.942123 0.000000 0.000000 0.000000 0.731707 0.121951 0.121951 0.014160 0.003906 1.017090 0.000000 0.000000 0.000000 1.000000 1.000000 1.000000 1.000000
4117993465 2000 -1.046152 1.432163 -159.941833 0.000000 0.000000 0.000000 0.670732 0.182927 0.121951 0.020996 0.000488 1.018066 0.000000 0.000000 0.000000 1.000000 1.000000 1.000000 1.000000
4117995465 2000 -1.045915 1.431456 -159.941986 0.000000 0.000000 0.000000 0.914634 0.121951 -0.121951 0.021484 -0.010254 1.032227 0.000000 0.000000 0.000000 1.000000 1.000000 1.000000 1.000000
4117997465 2000 -1.046303 1.430095 -159.942184 0.000000 0.000000 0.000000 0.487805 0.000000 -0.121951 0.024414 -0.008301 1.009766 0.000000 0.000000 0.000000 1.000000 1.000000 1.000000 1.000000
4117999465 2000 -1.045841 1.428640 -159.942368 0.000000 0.000000 0.000000 0.487805 0.000000 -0.121951 0.017090 -0.009277 1.024414 0.000000 0.000000 0.000000 1.000000 1.000000 1.000000 1.000000
4118001465 2000 -1.045407 1.428978 -159.942429 0.000000 0.000000 0.000000 0.792683 0.182927 -0.060976 0.020996 0.001465 1.043457 0.000000 0.000000 0.000000 1.000000 1.000000 1.000000 1.000000
4118003465 2000 -1.045473 1.428843 -159.942245 0.000000 0.000000 0.000000 0.853659 0.121951 0.060976 0.023926 -0.003906 1.022461 0.000000 0.000000 0.000000 1.000000 1.000000 1.000000 1.000000
4118005465 2000 -1.044909 1.428934 -159.941818 0.000000 0.000000 0.000000 0.914634 0.304878 0.182927 0.021484 -0.002930 1.022949 0.000000 0.000000 0.000000 1.000000 1.000000 1.000000 1.000000
4118007465 2000 -1.045368 1.430229 -159.941544 0.000000 0.000000 0.000000 0.731707 0.060976 0.121951 0.026367 0.011230 1.023438 0.000000 0.000000 0.000000 1.000000 1.000000 1.000000 1.000000
4118009465 2000 -1.045769 1.430233 -159.941727 0.000000 0.000000 0.000000 0.731707 0.000000 -0.121951 0.024902 -0.000488 1.025391 0.000000 0.000000 0.000000 1.000000 1.000000 1.000000 1.000000
4118011465 2000 -1.045755 1.430457 -159.941315 0.000000 0.000000 0.000000 0.792683 0.304878 0.182927 0.026367 0.000488 1.019043 0.000000 0.000000 0.000000 1.000000 1.000000 1.000000 1.000000
4118013465 2000 -1.046198 1.428914 -159.941605 0.000000 0.000000 0.000000 0.548781 0.000000 -0.182927 0.025391 -0.011230 1.028809 0.000000 0.000000 0.000000 1.000000 1.000000 1.000000 1.000000
4118015465 2000 -1.047084 1.429400 -159.941696 0.000000 0.000000 0.000000 0.731707 -0.121951 -0.060976 0.027344 0.003906 1.035645 0.000000 0.000000 0.000000 1.000000 1.000000 1.000000 1.000000
4118017465 2000 -1.046914 1.428867 -159.942261 0.000000 0.000000 0.000000 0.731707 -0.060976 -0.304878 0.018555 -0.005371 1.015137 0.000000 0.000000 0.000000 1.000000 1.000000 1.000000 1.000000
4118019465 2000 -1.046474 1.428477 -159.942062 0.000000 0.000000 0.000000 0.914634 0.426829 0.060976 0.024902 -0.007324 1.023438 0.000000 0.000000 0.000000 1.000000 1.000000 1.000000 1.000000
4118021465 2000 -1.046946 1.429077 -159.941772 0.000000 0.000000 0.000000 0.792683 0.060976 0.121951 0.026855 0.003906 1.037109 0.000000 0.000000 0.000000 1.000000 1.000000 1.000000 1.000000
4118023465 2000 -1.047281 1.427855 -159.941711 0.000000 0.000000 0.000000 0.548781 0.000000 0.000000 0.024414 -0.008301 1.031250 0.000000 0.000000 0.000000 1.000000 1.000000 1.000000 1.000000
4118025465 2000 -1.047579 1.426760 -159.942001 0.000000 0.000000 0.000000 0.609756 0.182927 -0.182927 0.027344 -0.008301 1.025879 0.000000 0.000000 0.000000 1.000000 1.000000 1.000000 1.000000
4118027465 2000 -1.047224 1.425618 -159.942184 0.000000 0.000000 0.000000 0.609756 0.121951 -0.121951 0.020508 -0.008789 1.035645 0.000000 0.000000 0.000000 1.000000 1.000000 1.000000 1.000000
4118029465 2000 -1.047638 1.426771 -159.941650 0.000000 0.000000 0.000000 0.853659 0.121951 0.243902 0.027344 0.007812 1.035156 0.000000 0.000000 0.000000 1.000000 1.000000 1.000000 1.000000
4118031465 2000 -1.047980 1.427170 -159.941605 0.000000 0.000000 0.000000 0.792683 0.060976 0.000000 0.025391 0.001953 1.022461 0.000000 0.000000 0.000000 1.000000 1.000000 1.000000 1.000000
4118033465 2000 -1.047578 1.427516 -159.941803 0.000000 0.000000 0.000000 0.792683 0.121951 -0.121951 0.020020 0.001465 1.032227 0.000000 0.000000 0.000000 1.000000 1.000000 1.000000 1.000000
4118035465 2000 -1.047889 1.427636 -159.941376 0.000000 0.000000 0.000000 0.792683 0.121951 0.182927 0.026367 -0.000488 1.032227 0.000000 0.000000 0.000000 1.000000 1.000000 1.000000 1.000000
4118037465 2000 -1.047652 1.427985 -159.941833 0.000000 0.000000 0.000000 0.792683 0.060976 -0.243902 0.020508 0.001465 1.034668 0.000000 0.000000 0.000000 1.000000 1.000000 1.000000 1.000000
4118039465 2000 -1.047037 1.428144 -159.941528 0.000000 0.000000 0.000000 0.731707 0.121951 0.121951 0.018066 0.000977 1.038086 0.000000 0.000000 0.000000 1.000000 1.000000 1.000000 1.000000
4118041465 2000 -1.047798 1.428095 -159.941467 0.000000 0.000000 0.000000 0.975610 -0.121951 0.000000 0.025879 -0.005371 1.023438 0.000000 0.000000 0.000000 1.000000 1.000000 1.000000 1.000000
4118043465 2000 -1.048791 1.428261 -159.941452 0.000000 0.000000 0.000000 0.731707 -0.060976 0.000000 0.029297 0.000977 1.030762 0.000000 0.000000 0.000000 1.000000 1.000000 1.000000 1.000000
4118045465 2000 -1.050117 1.428542 -159.941025 0.000000 0.000000 0.000000 0.792683 0.060976 0.182927 0.034180 0.000977 1.021484 0.000000 0.000000 0.000000 1.000000 1.000000 1.000000 1.000000
4118047465 2000 -1.050183 1.428184 -159.941208 0.000000 0.000000 0.000000 0.548781 0.182927 -0.121951 0.025391 -0.000488 1.030762 0.000000 0.000000 0.000000 1.000000 1.000000 1.000000 1.000000
4118049465 2000 -1.049899 1.427828 -159.941513 0.000000 0.000000 0.000000 0.792683 0.182927 -0.182927 0.021973 -0.004883 1.018555 0.000000 0.000000 0.000000 1.000000 1.000000 1.000000 1.000000
4118051465 2000 -1.050222 1.428374 -159.941467 0.000000 0.000000 0.000000 0.975610 0.060976 0.000000 0.025391 0.000000 1.027832 0.000000 0.000000 0.000000 1.000000 1.000000 1.000000 1.000000
4118053465 2000 -1.049350 1.427281 -159.941650 0.000000 0.000000 0.000000 0.426829 0.182927 -0.121951 0.016602 -0.004883 1.015137 0.000000 0.000000 0.000000 1.000000 1.000000 1.000000 1.000000
4118055465 2000 -1.048938 1.426898 -159.941711 0.000000 0.000000 0.000000 0.670732 0.182927 -0.060976 0.020996 -0.002930 1.030273 0.000000 0.000000 0.000000 1.000000 1.000000 1.000000 1.000000
4118057465 2000 -1.048396 1.426810 -159.941772 0.000000 0.000000 0.000000 0.548781 0.304878 -0.060976 0.021973 0.001953 1.028320 0.000000 0.000000 0.000000 1.000000 1.000000 1.000000 1.000000
4118059465 2000 -1.048519 1.425948 -159.941956 0.000000 0.000000 0.000000 0.670732 0.182927 -0.121951 0.025879 -0.007324 1.030762 0.000000 0.000000 0.000000 1.000000 1.000000 1.000000 1.000000
4118061465 2000 -1.050333 1.425959 -159.942032 0.000000 0.000000 0.000000 0.731707 -0.060976 -0.060976 0.036621 -0.000488 1.025391 0.000000 0.000000 0.000000 1.000000 1.000000 1.000000 1.000000
4118063465 2000 -1.050856 1.426345 -159.941864 0.000000 0.000000 0.000000 0.731707 0.000000 0.060976 0.025879 0.002930 1.020020 0.000000 0.000000 0.000000 1.000000 1.000000 1.000000 1.000000
4118065465 2000 -1.050161 1.426134 -159.941681 0.000000 0.000000 0.000000 0.731707 0.304878 0.060976 0.020508 -0.002441 1.025391 0.000000 0.000000 0.000000 1.000000 1.000000 1.000000 1.000000
4118067465 2000 -1.050866 1.426575 -159.941528 0.000000 0.000000 0.000000 0.731707 -0.060976 0.060976 0.026367 0.003418 1.018066 0.000000 0.000000 0.000000 1.000000 1.000000 1.000000 1.000000
4118069465 2000 -1.050512 1.427046 -159.941605 0.000000 0.000000 0.000000 0.853659 0.060976 -0.060976 0.019043 0.001465 1.014648 0.000000 0.000000 0.000000 1.000000 1.000000 1.000000 1.000000
4118071465 2000 -1.049132 1.426794 -159.941772 0.000000 0.000000 0.000000 0.792683 0.304878 -0.121951 0.014160 -0.003906 1.008789 0.000000 0.000000 0.000000 1.000000 1.000000 1.000000 1.000000
4118073465 2000 -1.048822 1.427341 -159.941727 0.000000 0.000000 0.000000 0.731707 0.060976 0.000000 0.019531 0.004395 1.022949 0.000000 0.000000 0.000000 1.000000 1.000000 1.000000 1.000000
4118075465 2000 -1.048838 1.427079 -159.941803 0.000000 0.000000 0.000000 0.731707 0.000000 -0.060976 0.021484 -0.002930 1.026855 0.000000 0.000000 0.000000 1.000000 1.000000 1.000000 1.000000
4118077465 2000 -1.047540 1.426921 -159.941605 0.000000 0.000000 0.000000 0.731707 0.304878 0.060976 0.015137 -0.001953 1.033203 0.000000 0.000000 0.000000 1.000000 1.000000 1.000000 1.000000
4118079465 2000 -1.047906 1.426056 -159.941437 0.000000 0.000000 0.000000 0.670732 0.060976 0.060976 0.025879 -0.007324 1.035156 0.000000 0.000000 0.000000 1.000000 1.000000 1.000000 1.000000
4118081465 2000 -1.048316 1.426202 -159.941635 0.000000 0.000000 0.000000 0.609756 -0.060976 -0.121951 0.023926 0.002930 1.025391 0.000000 0.000000 0.000000 1.000000 1.000000 1.000000 1.000000
4118083465 2000 -1.048722 1.425628 -159.941467 0.000000 0.000000 0.000000 0.792683 0.000000 0.060976 0.024902 -0.006836 1.024902 0.000000 0.000000 0.000000 1.000000 1.000000 1.000000 1.000000
4118085465 2000 -1.048627 1.426109 -159.941422 0.000000 0.000000 0.000000 0.670732 0.060976 0.000000 0.021484 0.004883 1.023438 0.000000 0.000000 0.000000 1.000000 1.000000 1.000000 1.000000
4118087465 2000 -1.049251 1.426116 -159.941986 0.000000 0.000000 0.000000 0.914634 -0.060976 -0.304878 0.025879 -0.003906 1.022461 0.000000 0.000000 0.000000 1.000000 1.000000 1.000000 1.000000
4118089465 2000 -1.048646 1.425582 -159.941666 0.000000 0.000000 0.000000 0.731707 0.121951 0.121951 0.018066 -0.005371 1.031250 0.000000 0.000000 0.000000 1.000000 1.000000 1.000000 1.000000
4118091465 2000 -1.049132 1.426201 -159.941498 0.000000 0.000000 0.000000 0.792683 0.243902 0.060976 0.029785 0.003906 1.016113 0.000000 0.000000 0.000000 1.000000 1.000000 1.000000 1.000000
4118093465 2000 -1.047701 1.427284 -159.941452 0.000000 0.000000 0.000000 0.914634 0.304878 0.000000 0.013672 0.005859 1.012207 0.000000 0.000000 0.000000 1.000000 1.000000 1.000000 1.000000
4118095465 2000 -1.048022 1.426840 -159.941895 0.000000 0.000000 0.000000 0.609756 0.000000 -0.243902 0.024414 -0.002441 1.031250 0.000000 0.000000 0.000000 1.000000 1.000000 1.000000 1.000000
4118097465 2000 -1.048417 1.426126 -159.941727 0.000000 0.000000 0.000000 0.670732 -0.121951 0.060976 0.022461 -0.005859 1.019043 0.000000 0.000000 0.000000 1.000000 1.000000 1.000000 1.000000
4118099465 2000 -1.048399 1.426501 -159.941788 0.000000 0.000000 0.000000 0.914634 0.121951 -0.060976 0.023438 -0.000488 1.029785 0.000000 0.000000 0.000000 1.000000 1.000000 1.000000 1.000000
4118101465 2000 -1.048243 1.427062 -159.942245 0.000000 0.000000 0.000000 0.548781 0.182927 -0.243902 0.023438 0.007812 1.032227 0.000000 0.000000 0.000000 1.000000 1.000000 1.000000 1.000000
4118103465 2000 -1.048449 1.426192 -159.942429 0.000000 0.000000 0.000000 0.670732 -0.060976 -0.121951 0.021973 -0.007324 1.020508 0.000000 0.000000 0.000000 1.000000 1.000000 1.000000 1.000000
4118105465 2000 -1.048399 1.425809 -159.942383 0.000000 0.000000 0.000000 0.670732 0.060976 0.000000 0.021973 -0.002930 1.027832 0.000000 0.000000 0.000000 1.000000 1.000000 1.000000 1.000000
4118107465 2000 -1.048187 1.426086 -159.942322 0.000000 0.000000 0.000000 0.731707 0.304878 0.000000 0.024902 0.001953 1.026855 0.000000 0.000000 0.000000 1.000000 1.000000 1.000000 1.000000
4118109465 2000 -1.048540 1.426223 -159.941895 0.000000 0.000000 0.000000 0.853659 0.060976 0.182927 0.025391 -0.001465 1.021484 0.000000 0.000000 0.000000 1.000000 1.000000 1.000000 1.000000
4118111465 2000 -1.047868 1.426062 -159.941467 0.000000 0.000000 0.000000 0.731707 0.243902 0.182927 0.019531 -0.001953 1.026367 0.000000 0.000000 0.000000 1.000000 1.000000 1.000000 1.000000
4118113465 2000 -1.047674 1.425938 -159.941650 0.000000 0.000000 0.000000 0.609756 0.243902 -0.121951 0.023926 0.000488 1.023438 0.000000 0.000000 0.000000 1.000000 1.000000 1.000000 1.000000
4118115465 2000 -1.047725 1.425089 -159.941345 0.000000 0.000000 0.000000 0.304878 0.243902 0.121951 0.025879 -0.000488 1.017578 0.000000 0.000000 0.000000 1.000000 1.000000 1.000000 1.000000
4118117465 2000 -1.047581 1.425100 -159.941299 0.000000 0.000000 0.000000 0.731707 0.121951 0.000000 0.021973 -0.000488 1.016602 0.000000 0.000000 0.000000 1.000000 1.000000 1.000000 1.000000
4118119465 2000 -1.048133 1.424740 -159.941849 0.000000 0.000000 0.000000 0.731707 0.121951 -0.304878 0.028320 -0.003906 1.015625 0.000000 0.000000 0.000000 1.000000 1.000000 1.000000 1.000000
4118121465 2000 -1.048372 1.425076 -159.941818 0.000000 0.000000 0.000000 0.487805 0.060976 0.000000 0.024414 0.006836 1.020020 0.000000 0.000000 0.000000 1.000000 1.000000 1.000000 1.000000
4118123465 2000 -1.048359 1.425105 -159.941986 0.000000 0.000000 0.000000 0.792683 0.304878 -0.121951 0.026855 -0.001465 1.030762 0.000000 0.000000 0.000000 1.000000 1.000000 1.000000 1.000000
4118125465 2000 -1.047493 1.425088 -159.941925 0.000000 0.000000 0.000000 0.853659 0.365854 0.000000 0.020020 -0.002930 1.023926 0.000000 0.000000 0.000000 1.000000 1.000000 1.000000 1.000000
4118127465 2000 -1.047558 1.424463 -159.941986 0.000000 0.000000 0.000000 0.548781 0.121951 -0.060976 0.023926 -0.002930 1.019043 0.000000 0.000000 0.000000 1.000000 1.000000 1.000000 1.000000
4118129465 2000 -1.047749 1.423992 -159.941681 0.000000 0.000000 0.000000 0.731707 0.060976 0.121951 0.024414 -0.004883 1.041992 0.000000 0.000000 0.000000 1.000000 1.000000 1.000000 1.000000
4118131465 2000 -1.047009 1.424598 -159.941635 0.000000 0.000000 0.000000 0.975610 0.243902 0.000000 0.019043 0.000488 1.028809 0.000000 0.000000 0.000000 1.000000 1.000000 1.000000 1.000000
4118133465 2000 -1.046437 1.424782 -159.941452 0.000000 0.000000 0.000000 0.792683 0.243902 0.060976 0.020508 0.000000 1.028320 0.000000 0.000000 0.000000 1.000000 1.000000 1.000000 1.000000
4118135465 2000 -1.046717 1.424471 -159.941772 0.000000 0.000000 0.000000 0.914634 -0.304878 -0.182927 0.018555 -0.006836 1.037598 0.000000 0.000000 0.000000 1.000000 1.000000 1.000000 1.000000
4118137465 2000 -1.046829 1.424358 -159.941605 0.000000 0.000000 0.000000 0.670732 0.121951 0.060976 0.024414 -0.000488 1.024902 0.000000 0.000000 0.000000 1.000000 1.000000 1.000000 1.000000
4118139465 2000 -1.047211 1.424888 -159.940933 0.000000 0.000000 0.000000 0.914634 0.304878 0.304878 0.029785 0.000977 1.015137 0.000000 0.000000 0.000000 1.000000 1.000000 1.000000 1.000000
4118141465 2000 -1.047009 1.424869 -159.940750 0.000000 0.000000 0.000000 0.853659 0.121951 0.060976 0.021484 -0.002930 1.020020 0.000000 0.000000 0.000000 1.000000 1.000000 1.000000 1.000000
4118143465 2000 -1.047541 1.424493 -159.940811 0.000000 0.000000 0.000000 0.914634 -0.121951 -0.060976 0.023926 -0.007324 1.027344 0.000000 0.000000 0.000000 1.000000 1.000000 1.000000 1.000000
4118145465 2000 -1.047770 1.424815 -159.940521 0.000000 0.000000 0.000000 0.670732 0.243902 0.121951 0.027344 0.003418 1.012695 0.000000 0.000000 0.000000 1.000000 1.000000 1.000000 1.000000
4118147465 2000 -1.047560 1.424949 -159.940582 0.000000 0.000000 0.000000 0.792683 0.243902 -0.060976 0.023926 -0.000488 1.031250 0.000000 0.000000 0.000000 1.000000 1.000000 1.000000 1.000000
4118149465 2000 -1.048205 1.424971 -159.940399 0.000000 0.000000 0.000000 0.792683 0.182927 0.060976 0.030273 -0.001465 1.021973 0.000000 0.000000 0.000000 1.000000 1.000000 1.000000 1.000000
4118151465 2000 -1.048434 1.425143 -159.940353 0.000000 0.000000 0.000000 0.731707 0.060976 0.000000 0.024414 0.000977 1.023926 0.000000 0.000000 0.000000 1.000000 1.000000 1.000000 1.000000
4118153465 2000 -1.048365 1.425016 -159.940186 0.000000 0.000000 0.000000 0.609756 0.000000 0.060976 0.020508 0.000488 1.020020 0.000000 0.000000 0.000000 1.000000 1.000000 1.000000 1.000000
4118155465 2000 -1.048646 1.425178 -159.940384 0.000000 0.000000 0.000000 0.670732 0.243902 -0.121951 0.028320 0.001953 1.026855 0.000000 0.000000 0.000000 1.000000 1.000000 1.000000 1.000000
4118157465 2000 -1.049133 1.426250 -159.939957 0.000000 0.000000 0.000000 1.158537 0.121951 0.182927 0.027832 0.001465 1.026367 0.000000 0.000000 0.000000 1.000000 1.000000 1.000000 1.000000
4118159465 2000 -1.048759 1.427912 -159.940170 0.000000 0.000000 0.000000 1.097561 0.060976 -0.121951 0.019043 0.007812 1.024414 0.000000 0.000000 0.000000 1.000000 1.000000 1.000000 1.000000
4118161465 2000 -1.048323 1.427766 -159.940247 0.000000 0.000000 0.000000 0.548781 0.243902 -0.060976 0.021973 0.001465 1.034668 0.000000 0.000000 0.000000 1.000000 1.000000 1.000000 1.000000
4118163465 2000 -1.048176 1.428383 -159.939941 0.000000 0.000000 0.000000 0.853659 0.182927 0.121951 0.023438 0.002930 1.036621 0.000000 0.000000 0.000000 1.000000 1.000000 1.000000 1.000000
4118165465 2000 -1.048836 1.428219 -159.939636 0.000000 0.000000 0.000000 0.731707 0.000000 0.121951 0.026855 -0.001953 1.012695 0.000000 0.000000 0.000000 1.000000 1.000000 1.000000 1.000000
4118167465 2000 -1.049032 1.427749 -159.939362 0.000000 0.000000 0.000000 0.792683 -0.060976 0.121951 0.021973 -0.005859 1.029297 0.000000 0.000000 0.000000 1.000000 1.000000 1.000000 1.000000
4118169465 2000 -1.049409 1.428222 -159.939041 0.000000 0.000000 0.000000 0.914634 0.304878 0.121951 0.030273 0.000488 1.029297 0.000000 0.000000 0.000000 1.000000 1.000000 1.000000 1.000000
4118171465 2000 -1.050018 1.427761 -159.939484 0.000000 0.000000 0.000000 0.548781 0.000000 -0.243902 0.026855 -0.001465 1.023438 0.000000 0.000000 0.000000 1.000000 1.000000 1.000000 1.000000
4118173539 2074 -1.048957 1.427230 -159.939774 0.000000 0.000000 0.000000 0.853659 0.426829 -0.182927 0.019531 -0.007324 1.009277 0.000000 0.000000 0.000000 1.000000 1.000000 1.000000 1.000000
4118175539 2000 -1.047959 1.427658 -159.939865 0.000000 0.000000 0.000000 0.670732 0.243902 -0.060976 0.016602 0.004395 1.020020 0.000000 0.000000 0.000000 1.000000 1.000000 1.000000 1.000000
4118177539 2000 -1.047693 1.427640 -159.939301 0.000000 0.000000 0.000000 0.914634 0.182927 0.243902 0.021973 -0.003906 1.021973 0.000000 0.000000 0.000000 1.000000 1.000000 1.000000 1.000000
4118179539 2000 -1.047590 1.427896 -159.939636 0.000000 0.000000 0.000000 0.853659 -0.182927 -0.182927 0.017090 -0.000488 1.024902 0.000000 0.000000 0.000000 1.000000 1.000000 1.000000 1.000000
4118181539 2000 -1.047436 1.428189 -159.939819 0.000000 0.000000 0.000000 0.792683 0.121951 -0.121951 0.021973 0.000977 1.018066 0.000000 0.000000 0.000000 1.000000 1.000000 1.000000 1.000000
4118183539 2000 -1.047139 1.427806 -159.940018 0.000000 0.000000 0.000000 0.670732 0.182927 -0.121951 0.021973 -0.002930 1.027832 0.000000 0.000000 0.000000 1.000000 1.000000 1.000000 1.000000
4118185539 2000 -1.047755 1.427491 -159.940201 0.000000 0.000000 0.000000 0.731707 0.000000 -0.121951 0.026855 -0.003418 1.024414 0.000000 0.000000 0.000000 1.000000 1.000000 1.000000 1.000000
4118187539 2000 -1.048201 1.427308 -159.940277 0.000000 0.000000 0.000000 0.609756 0.182927 -0.060976 0.028809 0.000000 1.031738 0.000000 0.000000 0.000000 1.000000 1.000000 1.000000 1.000000
4118189539 2000 -1.047859 1.427130 -159.940094 0.000000 0.000000 0.000000 0.853659 0.060976 0.060976 0.019531 -0.004395 1.041016 0.000000 0.000000 0.000000 1.000000 1.000000 1.000000 1.000000
4118191539 2000 -1.048080 1.426689 -159.940521 0.000000 0.000000 0.000000 0.853659 0.000000 -0.243902 0.023438 -0.006836 1.028320 0.000000 0.000000 0.000000 1.000000 1.000000 1.000000 1.000000
4118193539 2000 -1.048622 1.426201 -159.940598 0.000000 0.000000 0.000000 0.670732 0.000000 -0.060976 0.026367 -0.003906 1.032227 0.000000 0.000000 0.000000 1.000000 1.000000 1.000000 1.000000
4118195539 2000 -1.048137 1.426998 -159.941040 0.000000 0.000000 0.000000 0.853659 0.243902 -0.243902 0.021484 0.004395 1.028809 0.000000 0.000000 0.000000 1.000000 1.000000 1.000000 1.000000
4118197539 2000 -1.047836 1.427158 -159.941345 0.000000 0.000000 0.000000 0.670732 0.182927 -0.182927 0.021973 0.001953 1.027344 0.000000 0.000000 0.000000 1.000000 1.000000 1.000000 1.000000
4118199539 2000 -1.047546 1.426553 -159.941040 0.000000 0.000000 0.000000 0.670732 0.182927 0.121951 0.021973 -0.004883 1.029297 0.000000 0.000000 0.000000 1.000000 1.000000 1.000000 1.000000
4118201539 2000 -1.047509 1.426809 -159.941238 0.000000 0.000000 0.000000 0.609756 0.060976 -0.121951 0.021973 0.003906 1.020508 0.000000 0.000000 0.000000 1.000000 1.000000 1.000000 1.000000
4118203539 2000 -1.047167 1.426315 -159.941315 0.000000 0.000000 0.000000 0.426829 0.304878 -0.060976 0.023926 0.000488 1.035156 0.000000 0.000000 0.000000 1.000000 1.000000 1.000000 1.000000
4118205539 2000 -1.048417 1.425897 -159.941376 0.000000 0.000000 0.000000 0.731707 -0.060976 -0.060976 0.031738 -0.004395 1.033691 0.000000 0.000000 0.000000 1.000000 1.000000 1.000000 1.000000
4118207539 2000 -1.048636 1.425764 -159.941559 0.000000 0.000000 0.000000 0.792683 0.182927 -0.121951 0.026855 -0.002930 1.034668 0.000000 0.000000 0.000000 1.000000 1.000000 1.000000 1.000000
4118209539 2000 -1.047020 1.425586 -159.941742 0.000000 0.000000 0.000000 0.609756 0.304878 -0.121951 0.012207 0.000000 1.024414 0.000000 0.000000 0.000000 1.000000 1.000000 1.000000 1.000000
4118211539 2000 -1.047679 1.425956 -159.941971 0.000000 0.000000 0.000000 0.609756 -0.060976 -0.121951 0.025879 0.004883 1.014160 0.000000 0.000000 0.000000 1.000000 1.000000 1.000000 1.000000
4118213539 2000 -1.047411 1.426435 -159.941772 0.000000 0.000000 0.000000 0.914634 0.304878 0.060976 0.024414 0.000488 1.029297 0.000000 0.000000 0.000000 1.000000 1.000000 1.000000 1.000000
4118215539 2000 -1.046590 1.426214 -159.941849 0.000000 0.000000 0.000000 0.670732 0.182927 -0.060976 0.017090 -0.001465 1.021484 0.000000 0.000000 0.000000 1.000000 1.000000 1.000000 1.000000
4118217539 2000 -1.046429 1.424898 -159.941772 0.000000 0.000000 0.000000 0.609756 0.121951 0.000000 0.021973 -0.010254 1.024902 0.000000 0.000000 0.000000 1.000000 1.000000 1.000000 1.000000
4118219539 2000 -1.046533 1.424974 -159.941727 0.000000 0.000000 0.000000 0.548781 0.121951 0.000000 0.024414 0.003418 1.026855 0.000000 0.000000 0.000000 1.000000 1.000000 1.000000 1.000000
4118221539 2000 -1.046768 1.425176 -159.941788 0.000000 0.000000 0.000000 0.853659 0.182927 -0.060976 0.026855 -0.000977 1.031250 0.000000 0.000000 0.000000 1.000000 1.000000 1.000000 1.000000
4118223539 2000 -1.046625 1.425895 -159.941864 0.000000 0.000000 0.000000 0.731707 0.365854 -0.060976 0.026367 0.005859 1.016602 0.000000 0.000000 0.000000 1.000000 1.000000 1.000000 1.000000
4118225539 2000 -1.046531 1.426046 -159.941696 0.000000 0.000000 0.000000 0.670732 0.182927 0.060976 0.023926 0.001953 1.036621 0.000000 0.000000 0.000000 1.000000 1.000000 1.000000 1.000000
4118227539 2000 -1.046627 1.426317 -159.941879 0.000000 0.000000 0.000000 0.914634 0.000000 -0.121951 0.022461 -0.001465 1.039551 0.000000 0.000000 0.000000 1.000000 1.000000 1.000000 1.000000
4118229539 2000 -1.045759 1.425928 -159.942429 0.000000 0.000000 0.000000 0.792683 0.365854 -0.304878 0.020508 -0.005371 1.044434 0.000000 0.000000 0.000000 1.000000 1.000000 1.000000 1.000000
4118231539 2000 -1.047207 1.425598 -159.942001 0.000000 0.000000 0.000000 0.914634 -0.121951 0.182927 0.032227 -0.006836 1.031250 0.000000 0.000000 0.000000 1.000000 1.000000 1.000000 1.000000
4118233539 2000 -1.046440 1.424971 -159.941559 0.000000 0.000000 0.000000 0.792683 0.365854 0.182927 0.020996 -0.007324 1.033203 0.000000 0.000000 0.000000 1.000000 1.000000 1.000000 1.000000
4118235539 2000 -1.045857 1.424613 -159.941360 0.000000 0.000000 0.000000 0.548781 0.365854 0.060976 0.022461 -0.000488 1.021484 0.000000 0.000000 0.000000 1.000000 1.000000 1.000000 1.000000
4118237539 2000 -1.044523 1.425205 -159.941315 0.000000 0.000000 0.000000 0.914634 0.304878 0.000000 0.014648 0.001465 1.023926 0.000000 0.000000 0.000000 1.000000 1.000000 1.000000 1.000000
4118239539 2000 -1.045357 1.425328 -159.941376 0.000000 0.000000 0.000000 0.975610 0.000000 -0.060976 0.028809 -0.003906 1.026367 0.000000 0.000000 0.000000 1.000000 1.000000 1.000000 1.000000
4118241539 2000 -1.046525 1.424726 -159.940948 0.000000 0.000000 0.000000 0.670732 0.182927 0.182927 0.035156 -0.004883 1.029785 0.000000 0.000000 0.000000 1.000000 1.000000 1.000000 1.000000
4118243539 2000 -1.046825 1.424478 -159.940765 0.000000 0.000000 0.000000 0.792683 0.243902 0.060976 0.028320 -0.003906 1.024902 0.000000 0.000000 0.000000 1.000000 1.000000 1.000000 1.000000
4118245591 2052 -1.047189 1.424197 -159.940567 0.000000 0.000000 0.000000 0.670732 0.243902 0.060976 0.028809 -0.001953 1.024414 0.000000 0.000000 0.000000 1.000000 1.000000 1.000000 1.000000
4118247591 2000 -1.046925 1.423801 -159.940399 0.000000 0.000000 0.000000 0.609756 0.060976 0.060976 0.020020 -0.001953 1.029785 0.000000 0.000000 0.000000 1.000000 1.000000 1.000000 1.000000
4118249591 2000 -1.047045 1.424704 -159.940720 0.000000 0.000000 0.000000 0.792683 0.121951 -0.182927 0.024414 0.006348 1.016602 0.000000 0.000000 0.000000 1.000000 1.000000 1.000000 1.000000
4118251591 2000 -1.047293 1.423545 -159.940414 0.000000 0.000000 0.000000 0.609756 0.060976 0.121951 0.024414 -0.008789 1.020508 0.000000 0.000000 0.000000 1.000000 1.000000 1.000000 1.000000
4118253591 2000 -1.048719 1.423282 -159.940002 0.000000 0.000000 0.000000 0.731707 -0.121951 0.182927 0.031738 -0.002930 1.020996 0.000000 0.000000 0.000000 1.000000 1.000000 1.000000 1.000000
4118255591 2000 -1.048393 1.423633 -159.939835 0.000000 0.000000 0.000000 0.792683 0.000000 0.060976 0.018066 0.001465 1.012207 0.000000 0.000000 0.000000 1.000000 1.000000 1.000000 1.000000
4118257591 2000 -1.047761 1.423351 -159.939911 0.000000 0.000000 0.000000 0.609756 0.243902 -0.060976 0.020020 -0.000977 1.026855 0.000000 0.000000 0.000000 1.000000 1.000000 1.000000 1.000000
4118259591 2000 -1.047665 1.423285 -159.939850 0.000000 0.000000 0.000000 0.853659 0.000000 0.000000 0.020508 -0.003418 1.031738 0.000000 0.000000 0.000000 1.000000 1.000000 1.000000 1.000000
4118261591 2000 -1.047509 1.422620 -159.939529 0.000000 0.000000 0.000000 0.853659 0.121951 0.121951 0.021973 -0.008789 1.024414 0.000000 0.000000 0.000000 1.000000 1.000000 1.000000 1.000000
4118263591 2000 -1.048189 1.422722 -159.939728 0.000000 0.000000 0.000000 0.853659 0.121951 -0.121951 0.029785 -0.001953 1.029297 0.000000 0.000000 0.000000 1.000000 1.000000 1.000000 1.000000
4118265591 2000 -1.046980 1.422813 -159.939896 0.000000 0.000000 0.000000 1.036585 0.365854 -0.121951 0.017090 -0.005371 1.031250 0.000000 0.000000 0.000000 1.000000 1.000000 1.000000 1.000000
4118267591 2000 -1.047424 1.422995 -159.940216 0.000000 0.000000 0.000000 0.731707 -0.060976 -0.182927 0.024414 0.000977 1.032715 0.000000 0.000000 0.000000 1.000000 1.000000 1.000000 1.000000
4118269591 2000 -1.047656 1.422696 -159.940903 0.000000 0.000000 0.000000 0.731707 0.060976 -0.365854 0.024414 -0.003418 1.016602 0.000000 0.000000 0.000000 1.000000 1.000000 1.000000 1.000000
4118271591 2000 -1.047843 1.422813 -159.940598 0.000000 0.000000 0.000000 0.731707 0.182927 0.121951 0.026367 0.000488 1.032227 0.000000 0.000000 0.000000 1.000000 1.000000 1.000000 1.000000
4118273591 2000 -1.048724 1.422709 -159.939957 0.000000 0.000000 0.000000 0.731707 -0.304878 0.304878 0.023438 -0.001465 1.018555 0.000000 0.000000 0.000000 1.000000 1.000000 1.000000 1.000000
4118275591 2000 -1.049018 1.423461 -159.940292 0.000000 0.000000 0.000000 0.853659 0.000000 -0.182927 0.023926 0.003906 1.021484 0.000000 0.000000 0.000000 1.000000 1.000000 1.000000 1.000000
4118277591 2000 -1.048389 1.424274 -159.939743 0.000000 0.000000 0.000000 0.731707 0.304878 0.243902 0.020996 0.006836 1.025391 0.000000 0.000000 0.000000 1.000000 1.000000 1.000000 1.000000
4118279591 2000 -1.049458 1.424872 -159.939957 0.000000 0.000000 0.000000 0.914634 -0.121951 -0.121951 0.028809 0.001465 1.025879 0.000000 0.000000 0.000000 1.000000 1.000000 1.000000 1.000000
4118281591 2000 -1.050126 1.424043 -159.940018 0.000000 0.000000 0.000000 0.609756 0.121951 -0.060976 0.029297 -0.005859 1.015625 0.000000 0.000000 0.000000 1.000000 1.000000 1.000000 1.000000
4118283591 2000 -1.049885 1.424230 -159.939972 0.000000 0.000000 0.000000 0.792683 -0.060976 0.000000 0.018066 0.000000 1.028320 0.000000 0.000000 0.000000 1.000000 1.000000 1.000000 1.000000
4118285591 2000 -1.049746 1.424112 -159.939423 0.000000 0.000000 0.000000 0.670732 0.243902 0.243902 0.023926 -0.000488 1.007812 0.000000 0.000000 0.000000 1.000000 1.000000 1.000000 1.000000
4118287591 2000 -1.049347 1.424100 -159.939621 0.000000 0.000000 0.000000 0.609756 0.182927 -0.121951 0.020996 0.001465 1.022949 0.000000 0.000000 0.000000 1.000000 1.000000 1.000000 1.000000
4118289591 2000 -1.049929 1.424105 -159.939926 0.000000 0.000000 0.000000 0.670732 0.060976 -0.182927 0.027832 0.000488 1.028809 0.000000 0.000000 0.000000 1.000000 1.000000 1.000000 1.000000
4118291591 2000 -1.049543 1.424308 -159.940018 0.000000 0.000000 0.000000 0.853659 0.121951 -0.060976 0.020020 -0.000977 1.024414 0.000000 0.000000 0.000000 1.000000 1.000000 1.000000 1.000000
4118293591 2000 -1.049414 1.423523 -159.939941 0.000000 0.000000 0.000000 0.548781 0.182927 0.000000 0.023438 -0.004395 1.025879 0.000000 0.000000 0.000000 1.000000 1.000000 1.000000 1.000000
4118295591 2000 -1.048851 1.423458 -159.940033 0.000000 0.000000 0.000000 0.853659 -0.060976 -0.060976 0.015137 -0.003418 1.026367 0.000000 0.000000 0.000000 1.000000 1.000000 1.000000 1.000000
4118297591 2000 -1.048534 1.423755 -159.940109 0.000000 0.000000 0.000000 0.548781 0.060976 -0.060976 0.019531 0.005371 1.024902 0.000000 0.000000 0.000000 1.000000 1.000000 1.000000 1.000000
4118299591 2000 -1.048352 1.423483 -159.940781 0.000000 0.000000 0.000000 0.609756 0.304878 -0.365854 0.025391 -0.000977 1.028809 0.000000 0.000000 0.000000 1.000000 1.000000 1.000000 1.000000
4118301591 2000 -1.048979 1.422736 -159.941071 0.000000 0.000000 0.000000 0.670732 0.121951 -0.182927 0.029297 -0.006348 1.027832 0.000000 0.000000 0.000000 1.000000 1.000000 1.000000 1.000000
4118303591 2000 -1.048766 1.423056 -159.941391 0.000000 0.000000 0.000000 0.853659 0.182927 -0.182927 0.022461 0.000000 1.012207 0.000000 0.000000 0.000000 1.000000 1.000000 1.000000 1.000000
4118305591 2000 -1.048538 1.422747 -159.941345 0.000000 0.000000 0.000000 0.731707 0.121951 0.000000 0.021484 -0.003418 1.028809 0.000000 0.000000 0.000000 1.000000 1.000000 1.000000 1.000000
4118307591 2000 -1.048422 1.422229 -159.941040 0.000000 0.000000 0.000000 0.548781 0.182927 0.121951 0.023438 -0.001953 1.023438 0.000000 0.000000 0.000000 1.000000 1.000000 1.000000 1.000000
4118309591 2000 -1.049056 1.422586 -159.941086 0.000000 0.000000 0.000000 0.792683 0.243902 -0.060976 0.031250 0.001465 1.019043 0.000000 0.000000 0.000000 1.000000 1.000000 1.000000 1.000000
4118311591 2000 -1.049060 1.422181 -159.941040 0.000000 0.000000 0.000000 0.548781 0.182927 0.000000 0.024414 -0.000977 1.016602 0.000000 0.000000 0.000000 1.000000 1.000000 1.000000 1.000000
4118313591 2000 -1.049788 1.421843 -159.940872 0.000000 0.000000 0.000000 0.609756 0.000000 0.060976 0.027832 -0.001465 1.024902 0.000000 0.000000 0.000000 1.000000 1.000000 1.000000 1.000000
4118315591 2000 -1.050521 1.421896 -159.940460 0.000000 0.000000 0.000000 0.670732 -0.060976 0.182927 0.026367 0.000977 1.010742 0.000000 0.000000 0.000000 1.000000 1.000000 1.000000 1.000000
4118317591 2000 -1.050562 1.422697 -159.939911 0.000000 0.000000 0.000000 0.914634 0.121951 0.243902 0.023926 0.003418 1.031738 0.000000 0.000000 0.000000 1.000000 1.000000 1.000000 1.000000
4118319591 2000 -1.050634 1.423050 -159.940475 0.000000 0.000000 0.000000 0.975610 0.304878 -0.304878 0.027832 -0.001953 1.033691 0.000000 0.000000 0.000000 1.000000 1.000000 1.000000 1.000000
4118321591 2000 -1.050256 1.422406 -159.939774 0.000000 0.000000 0.000000 0.731707 0.365854 0.304878 0.024414 -0.006348 1.027344 0.000000 0.000000 0.000000 1.000000 1.000000 1.000000 1.000000
4118323591 2000 -1.050827 1.422349 -159.939484 0.000000 0.000000 0.000000 0.670732 0.121951 0.121951 0.028809 0.000000 1.032227 0.000000 0.000000 0.000000 1.000000 1.000000 1.000000 1.000000
4118325591 2000 -1.051478 1.422774 -159.939667 0.000000 0.000000 0.000000 0.853659 0.243902 -0.121951 0.031738 0.000977 1.027344 0.000000 0.000000 0.000000 1.000000 1.000000 1.000000 1.000000
4118327591 2000 -1.050838 1.422706 -159.939377 0.000000 0.000000 0.000000 0.853659 0.000000 0.121951 0.015625 -0.003418 1.035156 0.000000 0.000000 0.000000 1.000000 1.000000 1.000000 1.000000
4118329591 2000 -1.051130 1.422370 -159.939316 0.000000 0.000000 0.000000 0.853659 0.000000 0.000000 0.023926 -0.005859 1.023926 0.000000 0.000000 0.000000 1.000000 1.000000 1.000000 1.000000
4118331591 2000 -1.051183 1.422493 -159.939529 0.000000 0.000000 0.000000 0.487805 0.000000 -0.121951 0.021973 0.004883 1.031250 0.000000 0.000000 0.000000 1.000000 1.000000 1.000000 1.000000
4118333591 2000 -1.051404 1.422185 -159.939484 0.000000 0.000000 0.000000 0.731707 0.000000 0.000000 0.023438 -0.003418 1.030273 0.000000 0.000000 0.000000 1.000000 1.000000 1.000000 1.000000
4118335591 2000 -1.051629 1.421606 -159.939423 0.000000 0.000000 0.000000 0.487805 0.121951 0.000000 0.025391 -0.001465 1.018555 0.000000 0.000000 0.000000 1.000000 1.000000 1.000000 1.000000
4118337591 2000 -1.051681 1.421330 -159.939377 0.000000 0.000000 0.000000 0.853659 0.000000 0.000000 0.021973 -0.005371 1.033691 0.000000 0.000000 0.000000 1.000000 1.000000 1.000000 1.000000
4118339591 2000 -1.051157 1.420633 -159.939407 0.000000 0.000000 0.000000 0.670732 0.243902 -0.060976 0.020996 -0.005859 1.023926 0.000000 0.000000 0.000000 1.000000 1.000000 1.000000 1.000000
4118341591 2000 -1.052367 1.420794 -159.938995 0.000000 0.000000 0.000000 0.914634 -0.060976 0.182927 0.030762 -0.002441 1.014648 0.000000 0.000000 0.000000 1.000000 1.000000 1.000000 1.000000
4118343591 2000 -1.051802 1.421494 -159.939194 0.000000 0.000000 0.000000 1.097561 0.243902 -0.121951 0.020508 -0.000977 1.016113 0.000000 0.000000 0.000000 1.000000 1.000000 1.000000 1.000000
4118345591 2000 -1.051689 1.420141 -159.939621 0.000000 0.000000 0.000000 0.609756 0.060976 -0.243902 0.021484 -0.010742 1.023926 0.000000 0.000000 0.000000 1.000000 1.000000 1.000000 1.000000
4118347591 2000 -1.052441 1.420232 -159.939667 0.000000 0.000000 0.000000 0.792683 0.182927 -0.060976 0.031738 -0.000977 1.034180 0.000000 0.000000 0.000000 1.000000 1.000000 1.000000 1.000000
4118349591 2000 -1.052400 1.420276 -159.939621 0.000000 0.000000 0.000000 0.609756 0.182927 0.000000 0.024414 0.001953 1.030762 0.000000 0.000000 0.000000 1.000000 1.000000 1.000000 1.000000
4118351591 2000 -1.052239 1.420807 -159.939346 0.000000 0.000000 0.000000 0.853659 -0.060976 0.121951 0.018555 0.001953 1.016113 0.000000 0.000000 0.000000 1.000000 1.000000 1.000000 1.000000
4118353591 2000 -1.052490 1.421749 -159.939789 0.000000 0.000000 0.000000 0.731707 0.060976 -0.243902 0.024902 0.007812 1.028320 0.000000 0.000000 0.000000 1.000000 1.000000 1.000000 1.000000
4118355591 2000 -1.052711 1.420889 -159.940094 0.000000 0.000000 0.000000 0.670732 0.121951 -0.182927 0.025391 -0.007324 1.016113 0.000000 0.000000 0.000000 1.000000 1.000000 1.000000 1.000000
4118357591 2000 -1.052636 1.420544 -159.940033 0.000000 0.000000 0.000000 0.792683 0.365854 0.000000 0.027344 -0.004883 1.027344 0.000000 0.000000 0.000000 1.000000 1.000000 1.000000 1.000000
4118359591 2000 -1.052533 1.420586 -159.939728 0.000000 0.000000 0.000000 0.609756 0.121951 0.121951 0.022461 0.001953 1.020508 0.000000 0.000000 0.000000 1.000000 1.000000 1.000000 1.000000
4118361591 2000 -1.052039 1.420147 -159.939789 0.000000 0.000000 0.000000 0.609756 0.121951 -0.060976 0.019043 -0.002441 1.022461 0.000000 0.000000 0.000000 1.000000 1.000000 1.000000 1.000000
4118363591 2000 -1.051910 1.420425 -159.939758 0.000000 0.000000 0.000000 0.670732 0.000000 0.000000 0.020020 0.002930 1.017578 0.000000 0.000000 0.000000 1.000000 1.000000 1.000000 1.000000
4118365591 2000 -1.052099 1.420807 -159.939575 0.000000 0.000000 0.000000 0.914634 0.121951 0.060976 0.025391 -0.000488 1.032227 0.000000 0.000000 0.000000 1.000000 1.000000 1.000000 1.000000
4118367591 2000 -1.051838 1.421119 -159.938934 0.000000 0.000000 0.000000 0.670732 0.000000 0.304878 0.019043 0.003418 1.036621 0.000000 0.000000 0.000000 1.000000 1.000000 1.000000 1.000000
4118369591 2000 -1.052434 1.420703 -159.939240 0.000000 0.000000 0.000000 0.670732 0.060976 -0.182927 0.028320 -0.003418 1.040527 0.000000 0.000000 0.000000 1.000000 1.000000 1.000000 1.000000
4118371591 2000 -1.052975 1.420116 -159.939301 0.000000 0.000000 0.000000 0.670732 0.060976 -0.060976 0.027344 -0.004883 1.024414 0.000000 0.000000 0.000000 1.000000 1.000000 1.000000 1.000000
4118373591 2000 -1.052830 1.420675 -159.939621 0.000000 0.000000 0.000000 0.670732 0.304878 -0.182927 0.025391 0.005371 1.015137 0.000000 0.000000 0.000000 1.000000 1.000000 1.000000 1.000000
4118375591 2000 -1.053443 1.421385 -159.939941 0.000000 0.000000 0.000000 0.670732 0.121951 -0.182927 0.029297 0.006836 1.029297 0.000000 0.000000 0.000000 1.000000 1.000000 1.000000 1.000000
4118377591 2000 -1.053924 1.421209 -159.939667 0.000000 0.000000 0.000000 0.609756 -0.060976 0.121951 0.024414 0.000000 1.019531 0.000000 0.000000 0.000000 1.000000 1.000000 1.000000 1.000000
4118379591 2000 -1.053287 1.422267 -159.940125 0.000000 0.000000 0.000000 0.792683 0.121951 -0.243902 0.018066 0.007812 1.033203 0.000000 0.000000 0.000000 1.000000 1.000000 1.000000 1.000000
4118381591 2000 -1.053630 1.422015 -159.940323 0.000000 0.000000 0.000000 0.487805 -0.060976 -0.121951 0.023438 0.001465 1.026367 0.000000 0.000000 0.000000 1.000000 1.000000 1.000000 1.000000
4118383591 2000 -1.053070 1.422407 -159.940155 0.000000 0.000000 0.000000 0.731707 0.182927 0.060976 0.019531 0.002930 1.022949 0.000000 0.000000 0.000000 1.000000 1.000000 1.000000 1.000000
4118385591 2000 -1.053059 1.422902 -159.940475 0.000000 0.000000 0.000000 0.914634 0.060976 -0.182927 0.022461 0.000488 1.026367 0.000000 0.000000 0.000000 1.000000 1.000000 1.000000 1.000000
4118387591 2000 -1.052126 1.421717 -159.940628 0.000000 0.000000 0.000000 0.670732 0.365854 -0.121951 0.019531 -0.010254 1.022949 0.000000 0.000000 0.000000 1.000000 1.000000 1.000000 1.000000
4118389591 2000 -1.051437 1.421492 -159.940689 0.000000 0.000000 0.000000 0.609756 0.121951 -0.060976 0.017578 -0.000488 1.039551 0.000000 0.000000 0.000000 1.000000 1.000000 1.000000 1.000000
4118391591 2000 -1.051400 1.421457 -159.940781 0.000000 0.000000 0.000000 0.731707 0.000000 -0.060976 0.020996 -0.000977 1.024414 0.000000 0.000000 0.000000 1.000000 1.000000 1.000000 1.000000
4118393591 2000 -1.051900 1.421468 -159.941208 0.000000 0.000000 0.000000 0.670732 0.121951 -0.243902 0.028320 0.000488 1.031250 0.000000 0.000000 0.000000 1.000000 1.000000 1.000000 1.000000
4118395591 2000 -1.052118 1.421966 -159.940811 0.000000 0.000000 0.000000 0.975610 -0.121951 0.182927 0.020996 -0.000488 1.024414 0.000000 0.000000 0.000000 1.000000 1.000000 1.000000 1.000000
4118397591 2000 -1.052839 1.423079 -159.941162 0.000000 0.000000 0.000000 0.731707 -0.182927 -0.182927 0.024414 0.009277 1.015625 0.000000 0.000000 0.000000 1.000000 1.000000 1.000000 1.000000
4118399591 2000 -1.052635 1.423498 -159.941605 0.000000 0.000000 0.000000 0.548781 0.304878 -0.243902 0.024902 0.006348 1.016113 0.000000 0.000000 0.000000 1.000000 1.000000 1.000000 1.000000
4118401591 2000 -1.052230 1.423572 -159.941895 0.000000 0.000000 0.000000 0.731707 0.365854 -0.182927 0.024414 0.000000 1.026855 0.000000 0.000000 0.000000 1.000000 1.000000 1.000000 1.000000
4118403591 2000 -1.051683 1.423515 -159.941727 0.000000 0.000000 0.000000 0.670732 0.182927 0.060976 0.019531 0.000000 1.018066 0.000000 0.000000 0.000000 1.000000 1.000000 1.000000 1.000000
4118405591 2000 -1.052541 1.423008 -159.941315 0.000000 0.000000 0.000000 0.609756 -0.121951 0.182927 0.026855 -0.002930 1.027344 0.000000 0.000000 0.000000 1.000000 1.000000 1.000000 1.000000
4118407591 2000 -1.052656 1.422852 -159.941620 0.000000 0.000000 0.000000 0.914634 0.060976 -0.182927 0.023438 -0.005371 1.019531 0.000000 0.000000 0.000000 1.000000 1.000000 1.000000 1.000000
4118409591 2000 -1.052749 1.423205 -159.941574 0.000000 0.000000 0.000000 0.792683 0.182927 0.000000 0.025391 0.001465 1.020996 0.000000 0.000000 0.000000 1.000000 1.000000 1.000000 1.000000
4118411591 2000 -1.053171 1.423991 -159.942017 0.000000 0.000000 0.000000 0.731707 0.182927 -0.243902 0.028320 0.006348 1.015625 0.000000 0.000000 0.000000 1.000000 1.000000 1.000000 1.000000
4118413591 2000 -1.053500 1.423827 -159.941986 0.000000 0.000000 0.000000 0.670732 -0.182927 0.000000 0.020996 -0.000977 1.023926 0.000000 0.000000 0.000000 1.000000 1.000000 1.000000 1.000000
4118415591 2000 -1.053260 1.423810 -159.942398 0.000000 0.000000 0.000000 0.792683 0.243902 -0.243902 0.023926 -0.001953 1.034668 0.000000 0.000000 0.000000 1.000000 1.000000 1.000000 1.000000
4118417591 2000 -1.053657 1.424497 -159.942245 0.000000 0.000000 0.000000 0.670732 0.060976 0.060976 0.026367 0.006836 1.039062 0.000000 0.000000 0.000000 1.000000 1.000000 1.000000 1.000000
4118419591 2000 -1.052776 1.424049 -159.942291 0.000000 0.000000 0.000000 0.609756 0.365854 -0.060976 0.020020 -0.002441 1.024414 0.000000 0.000000 0.000000 1.000000 1.000000 1.000000 1.000000
4118421591 2000 -1.052202 1.423669 -159.942245 0.000000 0.000000 0.000000 0.670732 0.243902 0.000000 0.020508 -0.002930 1.022949 0.000000 0.000000 0.000000 1.000000 1.000000 1.000000 1.000000
4118423591 2000 -1.052404 1.423474 -159.942535 0.000000 0.000000 0.000000 0.731707 0.243902 -0.182927 0.027832 -0.002441 1.031738 0.000000 0.000000 0.000000 1.000000 1.000000 1.000000 1.000000
4118425591 2000 -1.052700 1.423949 -159.942612 0.000000 0.000000 0.000000 0.853659 0.182927 -0.060976 0.027344 0.001465 1.024902 0.000000 0.000000 0.000000 1.000000 1.000000 1.000000 1.000000
4118427610 2019 -1.053249 1.423395 -159.942307 0.000000 0.000000 0.000000 0.670732 0.182927 0.121951 0.029297 -0.004395 1.017578 0.000000 0.000000 0.000000 1.000000 1.000000 1.000000 1.000000
4118429610 2000 -1.054569 1.423447 -159.942123 0.000000 0.000000 0.000000 0.670732 0.000000 0.060976 0.033203 0.000977 1.022949 0.000000 0.000000 0.000000 1.000000 1.000000 1.000000 1.000000
4118431610 2000 -1.054797 1.423844 -159.942078 0.000000 0.000000 0.000000 0.731707 0.182927 0.000000 0.026367 0.002930 1.010254 0.000000 0.000000 0.000000 1.000000 1.000000 1.000000 1.000000
4118433610 2000 -1.054187 1.424285 -159.941788 0.000000 0.000000 0.000000 0.975610 0.121951 0.121951 0.018066 -0.000977 1.028320 0.000000 0.000000 0.000000 1.000000 1.000000 1.000000 1.000000
4118435610 2000 -1.054340 1.423486 -159.941467 0.000000 0.000000 0.000000 0.731707 0.304878 0.121951 0.028320 -0.007812 1.029297 0.000000 0.000000 0.000000 1.000000 1.000000 1.000000 1.000000
4118437610 2000 -1.054034 1.422630 -159.941986 0.000000 0.000000 0.000000 0.670732 0.426829 -0.304878 0.026367 -0.007324 1.021484 0.000000 0.000000 0.000000 1.000000 1.000000 1.000000 1.000000
4118439610 2000 -1.053705 1.422876 -159.942062 0.000000 0.000000 0.000000 0.792683 0.121951 -0.060976 0.020508 0.000488 1.019531 0.000000 0.000000 0.000000 1.000000 1.000000 1.000000 1.000000
4118441610 2000 -1.054574 1.422701 -159.941772 0.000000 0.000000 0.000000 0.853659 0.000000 0.121951 0.029297 -0.004395 1.029785 0.000000 0.000000 0.000000 1.000000 1.000000 1.000000 1.000000
4118443610 2000 -1.055052 1.423272 -159.941605 0.000000 0.000000 0.000000 0.792683 0.243902 0.060976 0.029785 0.003418 1.014648 0.000000 0.000000 0.000000 1.000000 1.000000 1.000000 1.000000
4118445610 2000 -1.055256 1.423811 -159.941544 0.000000 0.000000 0.000000 0.914634 0.000000 0.000000 0.023438 0.000977 1.034180 0.000000 0.000000 0.000000 1.000000 1.000000 1.000000 1.000000
4118447610 2000 -1.055847 1.423614 -159.941116 0.000000 0.000000 0.000000 0.792683 0.121951 0.182927 0.028809 -0.003418 1.023438 0.000000 0.000000 0.000000 1.000000 1.000000 1.000000 1.000000
4118449610 2000 -1.055275 1.423304 -159.940948 0.000000 0.000000 0.000000 0.731707 0.121951 0.060976 0.018555 -0.003418 1.033691 0.000000 0.000000 0.000000 1.000000 1.000000 1.000000 1.000000
4118451610 2000 -1.054604 1.423977 -159.940887 0.000000 0.000000 0.000000 0.792683 0.365854 0.000000 0.021973 0.004395 1.026855 0.000000 0.000000 0.000000 1.000000 1.000000 1.000000 1.000000
4118453610 2000 -1.054157 1.424378 -159.941345 0.000000 0.000000 0.000000 0.731707 0.121951 -0.243902 0.019531 0.002930 1.019043 0.000000 0.000000 0.000000 1.000000 1.000000 1.000000 1.000000
4118455610 2000 -1.054560 1.424053 -159.940674 0.000000 0.000000 0.000000 0.487805 0.060976 0.304878 0.025879 0.000977 1.020996 0.000000 0.000000 0.000000 1.000000 1.000000 1.000000 1.000000
4118457610 2000 -1.053251 1.423392 -159.940598 0.000000 0.000000 0.000000 0.609756 0.304878 0.000000 0.015137 -0.004395 1.031738 0.000000 0.000000 0.000000 1.000000 1.000000 1.000000 1.000000
4118459610 2000 -1.053334 1.423912 -159.940186 0.000000 0.000000 0.000000 0.548781 0.182927 0.182927 0.024902 0.007324 1.007812 0.000000 0.000000 0.000000 1.000000 1.000000 1.000000 1.000000
4118461610 2000 -1.053603 1.424033 -159.940155 0.000000 0.000000 0.000000 0.731707 -0.060976 0.000000 0.022461 0.000488 1.014648 0.000000 0.000000 0.000000 1.000000 1.000000 1.000000 1.000000
4118463610 2000 -1.053088 1.423854 -159.939713 0.000000 0.000000 0.000000 0.853659 0.365854 0.182927 0.023438 -0.004395 1.034180 0.000000 0.000000 0.000000 1.000000 1.000000 1.000000 1.000000
4118465610 2000 -1.051974 1.424695 -159.939285 0.000000 0.000000 0.000000 0.853659 0.243902 0.182927 0.015625 0.004883 1.026855 0.000000 0.000000 0.000000 1.000000 1.000000 1.000000 1.000000
4118467610 2000 -1.052037 1.424021 -159.939377 0.000000 0.000000 0.000000 0.548781 -0.060976 -0.060976 0.020996 -0.003418 1.033691 0.000000 0.000000 0.000000 1.000000 1.000000 1.000000 1.000000
4118469610 2000 -1.052049 1.424019 -159.939316 0.000000 0.000000 0.000000 0.670732 0.000000 0.000000 0.021484 0.000488 1.027344 0.000000 0.000000 0.000000 1.000000 1.000000 1.000000 1.000000
4118471610 2000 -1.051922 1.423517 -159.939255 0.000000 0.000000 0.000000 0.853659 -0.060976 0.000000 0.019043 -0.007324 1.023438 0.000000 0.000000 0.000000 1.000000 1.000000 1.000000 1.000000
4118473610 2000 -1.051364 1.423257 -159.939087 0.000000 0.000000 0.000000 0.731707 0.182927 0.060976 0.019531 -0.002930 1.023438 0.000000 0.000000 0.000000 1.000000 1.000000 1.000000 1.000000
4118475610 2000 -1.050126 1.423933 -159.939270 0.000000 0.000000 0.000000 0.792683 0.243902 -0.121951 0.014648 0.004395 1.029785 0.000000 0.000000 0.000000 1.000000 1.000000 1.000000 1.000000
4118477610 2000 -1.049600 1.423688 -159.939209 0.000000 0.000000 0.000000 0.792683 0.304878 0.000000 0.021973 -0.003906 1.021973 0.000000 0.000000 0.000000 1.000000 1.000000 1.000000 1.000000
4118479610 2000 -1.049880 1.423528 -159.939270 0.000000 0.000000 0.000000 0.670732 0.243902 -0.060976 0.028320 -0.000977 1.027344 0.000000 0.000000 0.000000 1.000000 1.000000 1.000000 1.000000
4118481610 2000 -1.049896 1.423660 -159.939102 0.000000 0.000000 0.000000 0.792683 0.000000 0.060976 0.021484 -0.000488 1.028809 0.000000 0.000000 0.000000 1.000000 1.000000 1.000000 1.000000
4118483610 2000 -1.049884 1.424051 -159.938934 0.000000 0.000000 0.000000 0.548781 0.243902 0.060976 0.025879 0.006348 1.037598 0.000000 0.000000 0.000000 1.000000 1.000000 1.000000 1.000000
4118485610 2000 -1.049960 1.424343 -159.939514 0.000000 0.000000 0.000000 0.731707 0.121951 -0.304878 0.024414 0.001953 1.028809 0.000000 0.000000 0.000000 1.000000 1.000000 1.000000 1.000000
4118487610 2000 -1.049209 1.424856 -159.939331 0.000000 0.000000 0.000000 0.792683 0.182927 0.060976 0.017578 0.002930 1.013672 0.000000 0.000000 0.000000 1.000000 1.000000 1.000000 1.000000
4118489610 2000 -1.048978 1.423999 -159.939621 0.000000 0.000000 0.000000 0.670732 0.304878 -0.182927 0.024902 -0.007324 1.030273 0.000000 0.000000 0.000000 1.000000 1.000000 1.000000 1.000000
4118491610 2000 -1.048412 1.424709 -159.940063 0.000000 0.000000 0.000000 0.670732 0.182927 -0.243902 0.019531 0.006836 1.022949 0.000000 0.000000 0.000000 1.000000 1.000000 1.000000 1.000000
4118493610 2000 -1.048264 1.425082 -159.940033 0.000000 0.000000 0.000000 0.670732 0.243902 0.000000 0.024414 0.003906 1.028320 0.000000 0.000000 0.000000 1.000000 1.000000 1.000000 1.000000
4118495610 2000 -1.047947 1.425264 -159.939713 0.000000 0.000000 0.000000 0.792683 0.487805 0.121951 0.026855 0.000000 1.013672 0.000000 0.000000 0.000000 1.000000 1.000000 1.000000 1.000000
4118497610 2000 -1.048065 1.425105 -159.940033 0.000000 0.000000 0.000000 0.914634 0.060976 -0.182927 0.023438 -0.005371 1.021973 0.000000 0.000000 0.000000 1.000000 1.000000 1.000000 1.000000
4118499610 2000 -1.048785 1.424492 -159.939972 0.000000 0.000000 0.000000 0.609756 -0.182927 0.000000 0.024414 -0.003906 1.022949 0.000000 0.000000 0.000000 1.000000 1.000000 1.000000 1.000000
4118501610 2000 -1.047996 1.424863 -159.939926 0.000000 0.000000 0.000000 0.670732 0.182927 0.000000 0.017578 0.003906 1.033203 0.000000 0.000000 0.000000 1.000000 1.000000 1.000000 1.000000
4118503610 2000 -1.048384 1.424413 -159.939865 0.000000 0.000000 0.000000 0.609756 0.121951 0.000000 0.026855 -0.002441 1.020508 0.000000 0.000000 0.000000 1.000000 1.000000 1.000000 1.000000
4118505610 2000 -1.048250 1.423909 -159.939697 0.000000 0.000000 0.000000 0.609756 -0.060976 0.060976 0.019043 -0.002930 1.031738 0.000000 0.000000 0.000000 1.000000 1.000000 1.000000 1.000000
4118507610 2000 -1.048235 1.423516 -159.939636 0.000000 0.000000 0.000000 0.609756 -0.060976 0.000000 0.020020 -0.001953 1.024902 0.000000 0.000000 0.000000 1.000000 1.000000 1.000000 1.000000
4118509610 2000 -1.048381 1.423409 -159.939728 0.000000 0.000000 0.000000 0.670732 0.182927 -0.060976 0.025879 -0.000488 1.023438 0.000000 0.000000 0.000000 1.000000 1.000000 1.000000 1.000000
4118511610 2000 -1.047505 1.424896 -159.939789 0.000000 0.000000 0.000000 0.731707 0.487805 -0.060976 0.021973 0.012695 1.015137 0.000000 0.000000 0.000000 1.000000 1.000000 1.000000 1.000000
4118513610 2000 -1.046759 1.424526 -159.939743 0.000000 0.000000 0.000000 0.487805 0.304878 0.000000 0.020020 0.000488 1.025391 0.000000 0.000000 0.000000 1.000000 1.000000 1.000000 1.000000
4118515610 2000 -1.046239 1.424719 -159.939224 0.000000 0.000000 0.000000 0.426829 0.000000 0.243902 0.016602 0.006836 1.036621 0.000000 0.000000 0.000000 1.000000 1.000000 1.000000 1.000000
4118517610 2000 -1.045519 1.424653 -159.939529 0.000000 0.000000 0.000000 0.609756 0.121951 -0.182927 0.017090 0.000977 1.030273 0.000000 0.000000 0.000000 1.000000 1.000000 1.000000 1.000000
4118519610 2000 -1.046016 1.424891 -159.939377 0.000000 0.000000 0.000000 0.792683 -0.182927 0.060976 0.022461 0.000488 1.029297 0.000000 0.000000 0.000000 1.000000 1.000000 1.000000 1.000000
4118521610 2000 -1.046242 1.424369 -159.939560 0.000000 0.000000 0.000000 0.731707 0.000000 -0.121951 0.023438 -0.005371 1.030273 0.000000 0.000000 0.000000 1.000000 1.000000 1.000000 1.000000
4118523610 2000 -1.046308 1.423645 -159.938889 0.000000 0.000000 0.000000 0.609756 0.243902 0.304878 0.026367 -0.004883 1.036133 0.000000 0.000000 0.000000 1.000000 1.000000 1.000000 1.000000
4118525610 2000 -1.046809 1.424180 -159.939209 0.000000 0.000000 0.000000 1.097561 0.060976 -0.182927 0.026855 -0.002441 1.021484 0.000000 0.000000 0.000000 1.000000 1.000000 1.000000 1.000000
4118527610 2000 -1.047812 1.423737 -159.939377 0.000000 0.000000 0.000000 0.609756 0.121951 -0.121951 0.032715 -0.002441 1.029785 0.000000 0.000000 0.000000 1.000000 1.000000 1.000000 1.000000
4118529610 2000 -1.047415 1.422920 -159.939072 0.000000 0.000000 0.000000 0.670732 0.243902 0.121951 0.021973 -0.006836 1.022949 0.000000 0.000000 0.000000 1.000000 1.000000 1.000000 1.000000
4118531610 2000 -1.047347 1.422424 -159.939011 0.000000 0.000000 0.000000 0.609756 0.060976 0.000000 0.021973 -0.002930 1.036621 0.000000 0.000000 0.000000 1.000000 1.000000 1.000000 1.000000
4118533610 2000 -1.048476 1.422781 -159.939224 0.000000 0.000000 0.000000 0.792683 0.060976 -0.121951 0.032715 0.001465 1.027832 0.000000 0.000000 0.000000 1.000000 1.000000 1.000000 1.000000
4118535610 2000 -1.048127 1.423070 -159.939285 0.000000 0.000000 0.000000 0.731707 0.304878 -0.060976 0.023438 0.001953 1.016113 0.000000 0.000000 0.000000 1.000000 1.000000 1.000000 1.000000
4118537610 2000 -1.046872 1.423620 -159.939117 0.000000 0.000000 0.000000 0.731707 0.182927 0.060976 0.013184 0.004395 1.024902 0.000000 0.000000 0.000000 1.000000 1.000000 1.000000 1.000000
4118539610 2000 -1.046613 1.424590 -159.938843 0.000000 0.000000 0.000000 0.670732 0.121951 0.121951 0.020996 0.009277 1.022461 0.000000 0.000000 0.000000 1.000000 1.000000 1.000000 1.000000
4118541610 2000 -1.047612 1.425411 -159.938675 0.000000 0.000000 0.000000 0.731707 0.060976 0.060976 0.031250 0.006836 1.021484 0.000000 0.000000 0.000000 1.000000 1.000000 1.000000 1.000000
4118543610 2000 -1.047669 1.425617 -159.938995 0.000000 0.000000 0.000000 0.609756 0.121951 -0.182927 0.023926 0.003418 1.019531 0.000000 0.000000 0.000000 1.000000 1.000000 1.000000 1.000000
4118545610 2000 -1.046617 1.425754 -159.938843 0.000000 0.000000 0.000000 0.609756 0.182927 0.060976 0.015137 0.002930 1.033691 0.000000 0.000000 0.000000 1.000000 1.000000 1.000000 1.000000
4118547610 2000 -1.047453 1.426309 -159.938278 0.000000 0.000000 0.000000 1.036585 0.121951 0.243902 0.030762 -0.000977 1.020508 0.000000 0.000000 0.000000 1.000000 1.000000 1.000000 1.000000
4118549610 2000 -1.047312 1.426501 -159.938126 0.000000 0.000000 0.000000 0.609756 0.000000 0.060976 0.020020 0.003418 1.028809 0.000000 0.000000 0.000000 1.000000 1.000000 1.000000 1.000000
4118551610 2000 -1.047924 1.426355 -159.938568 0.000000 0.000000 0.000000 0.731707 0.000000 -0.243902 0.026855 -0.001953 1.023926 0.000000 0.000000 0.000000 1.000000 1.000000 1.000000 1.000000
4118553610 2000 -1.047825 1.426161 -159.937897 0.000000 0.000000 0.000000 0.853659 -0.060976 0.304878 0.019043 -0.004395 1.020996 0.000000 0.000000 0.000000 1.000000 1.000000 1.000000 1.000000
4118555610 2000 -1.047898 1.425417 -159.938080 0.000000 0.000000 0.000000 0.487805 0.182927 -0.121951 0.025391 -0.002930 1.029785 0.000000 0.000000 0.000000 1.000000 1.000000 1.000000 1.000000
4118557610 2000 -1.048713 1.424081 -159.938019 0.000000 0.000000 0.000000 0.487805 0.000000 0.000000 0.028809 -0.008301 1.031738 0.000000 0.000000 0.000000 1.000000 1.000000 1.000000 1.000000
4118559610 2000 -1.048911 1.423733 -159.938202 0.000000 0.000000 0.000000 0.792683 -0.060976 -0.121951 0.021973 -0.004883 1.022949 0.000000 0.000000 0.000000 1.000000 1.000000 1.000000 1.000000
4118561610 2000 -1.048533 1.424583 -159.938416 0.000000 0.000000 0.000000 0.853659 0.243902 -0.121951 0.022461 0.004883 1.031738 0.000000 0.000000 0.000000 1.000000 1.000000 1.000000 1.000000
4118563610 2000 -1.048532 1.424282 -159.938477 0.000000 0.000000 0.000000 1.036585 0.182927 -0.060976 0.024414 -0.008789 1.017578 0.000000 0.000000 0.000000 1.000000 1.000000 1.000000 1.000000
4118565610 2000 -1.049493 1.424727 -159.938416 0.000000 0.000000 0.000000 0.975610 -0.121951 0.000000 0.027832 -0.000977 1.027832 0.000000 0.000000 0.000000 1.000000 1.000000 1.000000 1.000000
4118567610 2000 -1.049558 1.424485 -159.938736 0.000000 0.000000 0.000000 0.792683 0.121951 -0.182927 0.023926 -0.003906 1.015137 0.000000 0.000000 0.000000 1.000000 1.000000 1.000000 1.000000
4118569610 2000 -1.049984 1.423950 -159.939026 0.000000 0.000000 0.000000 0.670732 0.304878 -0.182927 0.030762 -0.004395 1.026367 0.000000 0.000000 0.000000 1.000000 1.000000 1.000000 1.000000
4118571610 2000 -1.050221 1.423369 -159.938736 0.000000 0.000000 0.000000 0.731707 -0.060976 0.121951 0.022461 -0.005859 1.033203 0.000000 0.000000 0.000000 1.000000 1.000000 1.000000 1.000000
4118573610 2000 -1.050942 1.423206 -159.938675 0.000000 0.000000 0.000000 0.670732 0.000000 0.000000 0.027832 -0.000977 1.025391 0.000000 0.000000 0.000000 1.000000 1.000000 1.000000 1.000000
4118575610 2000 -1.051064 1.423395 -159.938629 0.000000 0.000000 0.000000 0.792683 -0.060976 0.000000 0.021484 0.000000 1.033691 0.000000 0.000000 0.000000 1.000000 1.000000 1.000000 1.000000
4118577610 2000 -1.051124 1.423558 -159.938705 0.000000 0.000000 0.000000 0.670732 0.243902 -0.060976 0.026367 0.001953 1.027832 0.000000 0.000000 0.000000 1.000000 1.000000 1.000000 1.000000
4118579610 2000 -1.050493 1.424029 -159.937912 0.000000 0.000000 0.000000 0.914634 0.243902 0.365854 0.020020 0.000488 1.034180 0.000000 0.000000 0.000000 1.000000 1.000000 1.000000 1.000000
4118581610 2000 -1.050466 1.424217 -159.937973 0.000000 0.000000 0.000000 0.548781 0.182927 -0.060976 0.024414 0.004395 1.025879 0.000000 0.000000 0.000000 1.000000 1.000000 1.000000 1.000000
4118583610 2000 -1.051292 1.423984 -159.937820 0.000000 0.000000 0.000000 0.609756 -0.060976 0.060976 0.027344 -0.000488 1.013672 0.000000 0.000000 0.000000 1.000000 1.000000 1.000000 1.000000
4118585637 2027 -1.051311 1.424291 -159.937408 0.000000 0.000000 0.000000 0.853659 0.060976 0.182927 0.022461 0.000000 1.022949 0.000000 0.000000 0.000000 1.000000 1.000000 1.000000 1.000000
4118587637 2000 -1.050702 1.424440 -159.937454 0.000000 0.000000 0.000000 0.853659 0.182927 -0.060976 0.019043 -0.001465 1.020020 0.000000 0.000000 0.000000 1.000000 1.000000 1.000000 1.000000
4118589637 2000 -1.050725 1.423571 -159.936768 0.000000 0.000000 0.000000 0.731707 0.121951 0.304878 0.023438 -0.008301 1.019043 0.000000 0.000000 0.000000 1.000000 1.000000 1.000000 1.000000
4118591637 2000 -1.050990 1.423204 -159.936600 0.000000 0.000000 0.000000 0.731707 0.121951 0.060976 0.025879 -0.003906 1.024902 0.000000 0.000000 0.000000 1.000000 1.000000 1.000000 1.000000
4118593637 2000 -1.051183 1.423553 -159.936310 0.000000 0.000000 0.000000 0.792683 0.060976 0.121951 0.023926 0.001465 1.017578 0.000000 0.000000 0.000000 1.000000 1.000000 1.000000 1.000000
4118595637 2000 -1.051324 1.423799 -159.937103 0.000000 0.000000 0.000000 0.975610 0.060976 -0.426829 0.023926 -0.002930 1.026855 0.000000 0.000000 0.000000 1.000000 1.000000 1.000000 1.000000
4118597637 2000 -1.051723 1.423652 -159.937180 0.000000 0.000000 0.000000 0.731707 0.000000 -0.060976 0.024902 -0.001953 1.022949 0.000000 0.000000 0.000000 1.000000 1.000000 1.000000 1.000000
4118599637 2000 -1.051497 1.424838 -159.936905 0.000000 0.000000 0.000000 0.914634 0.182927 0.121951 0.022461 0.006836 1.021484 0.000000 0.000000 0.000000 1.000000 1.000000 1.000000 1.000000
4118601637 2000 -1.051621 1.424849 -159.936844 0.000000 0.000000 0.000000 0.731707 0.182927 0.000000 0.025879 -0.000488 1.030273 0.000000 0.000000 0.000000 1.000000 1.000000 1.000000 1.000000
4118603637 2000 -1.050249 1.424177 -159.937027 0.000000 0.000000 0.000000 0.548781 0.304878 -0.121951 0.014648 -0.003418 1.037598 0.000000 0.000000 0.000000 1.000000 1.000000 1.000000 1.000000
4118605637 2000 -1.050384 1.423491 -159.936478 0.000000 0.000000 0.000000 0.548781 0.000000 0.243902 0.022461 -0.003418 1.027344 0.000000 0.000000 0.000000 1.000000 1.000000 1.000000 1.000000
4118607637 2000 -1.051053 1.422652 -159.936142 0.000000 0.000000 0.000000 0.792683 0.243902 0.121951 0.031738 -0.009277 1.026367 0.000000 0.000000 0.000000 1.000000 1.000000 1.000000 1.000000
4118609637 2000 -1.050662 1.422434 -159.935959 0.000000 0.000000 0.000000 0.670732 0.365854 0.060976 0.024414 -0.001465 1.027344 0.000000 0.000000 0.000000 1.000000 1.000000 1.000000 1.000000
4118611637 2000 -1.049962 1.422302 -159.936020 0.000000 0.000000 0.000000 0.548781 0.304878 -0.060976 0.020508 0.001465 1.024902 0.000000 0.000000 0.000000 1.000000 1.000000 1.000000 1.000000
4118613637 2000 -1.050571 1.422873 -159.936127 0.000000 0.000000 0.000000 0.792683 0.000000 -0.060976 0.026855 0.003418 1.025879 0.000000 0.000000 0.000000 1.000000 1.000000 1.000000 1.000000
4118615637 2000 -1.051302 1.422734 -159.936554 0.000000 0.000000 0.000000 0.731707 -0.060976 -0.243902 0.026855 -0.001953 1.022461 0.000000 0.000000 0.000000 1.000000 1.000000 1.000000 1.000000
4118617637 2000 -1.051972 1.422967 -159.936630 0.000000 0.000000 0.000000 0.731707 0.182927 -0.060976 0.030762 0.001465 1.026855 0.000000 0.000000 0.000000 1.000000 1.000000 1.000000 1.000000
4118619637 2000 -1.052557 1.422771 -159.936951 0.000000 0.000000 0.000000 0.731707 -0.060976 -0.182927 0.025391 -0.002441 1.016602 0.000000 0.000000 0.000000 1.000000 1.000000 1.000000 1.000000
4118621637 2000 -1.052147 1.422880 -159.937637 0.000000 0.000000 0.000000 0.853659 -0.060976 -0.365854 0.016602 -0.001953 1.019531 0.000000 0.000000 0.000000 1.000000 1.000000 1.000000 1.000000
4118623637 2000 -1.050515 1.422186 -159.937683 0.000000 0.000000 0.000000 0.731707 0.426829 -0.060976 0.014160 -0.006836 1.014160 0.000000 0.000000 0.000000 1.000000 1.000000 1.000000 1.000000
4118625637 2000 -1.049815 1.422622 -159.937759 0.000000 0.000000 0.000000 0.670732 0.060976 -0.060976 0.016113 0.004395 1.026367 0.000000 0.000000 0.000000 1.000000 1.000000 1.000000 1.000000
4118627637 2000 -1.049615 1.421618 -159.937439 0.000000 0.000000 0.000000 0.548781 0.060976 0.121951 0.020508 -0.006348 1.023926 0.000000 0.000000 0.000000 1.000000 1.000000 1.000000 1.000000
4118629637 2000 -1.050041 1.421211 -159.936768 0.000000 0.000000 0.000000 0.792683 0.060976 0.304878 0.026367 -0.005371 1.035645 0.000000 0.000000 0.000000 1.000000 1.000000 1.000000 1.000000
4118631637 2000 -1.050155 1.421311 -159.936844 0.000000 0.000000 0.000000 0.853659 0.182927 -0.060976 0.025391 -0.001953 1.014160 0.000000 0.000000 0.000000 1.000000 1.000000 1.000000 1.000000
4118633637 2000 -1.049804 1.421541 -159.936661 0.000000 0.000000 0.000000 0.731707 0.182927 0.060976 0.021484 0.001465 1.029297 0.000000 0.000000 0.000000 1.000000 1.000000 1.000000 1.000000
4118635637 2000 -1.050322 1.421883 -159.936493 0.000000 0.000000 0.000000 0.975610 0.060976 0.060976 0.027344 -0.001953 1.036133 0.000000 0.000000 0.000000 1.000000 1.000000 1.000000 1.000000
4118637637 2000 -1.051267 1.421983 -159.937302 0.000000 0.000000 0.000000 0.792683 0.000000 -0.426829 0.030273 -0.000977 1.033203 0.000000 0.000000 0.000000 1.000000 1.000000 1.000000 1.000000
4118639637 2000 -1.051434 1.422528 -159.937393 0.000000 0.000000 0.000000 0.670732 0.060976 -0.060976 0.023926 0.005371 1.023438 0.000000 0.000000 0.000000 1.000000 1.000000 1.000000 1.000000
4118641637 2000 -1.052146 1.422469 -159.936966 0.000000 0.000000 0.000000 0.670732 0.000000 0.182927 0.027832 0.000000 1.030762 0.000000 0.000000 0.000000 1.000000 1.000000 1.000000 1.000000
4118643637 2000 -1.050804 1.421805 -159.936783 0.000000 0.000000 0.000000 0.609756 0.304878 0.060976 0.014648 -0.004395 1.023438 0.000000 0.000000 0.000000 1.000000 1.000000 1.000000 1.000000
4118645637 2000 -1.050292 1.421801 -159.936478 0.000000 0.000000 0.000000 0.670732 0.365854 0.121951 0.023438 0.000488 1.034180 0.000000 0.000000 0.000000 1.000000 1.000000 1.000000 1.000000
4118647637 2000 -1.051066 1.421349 -159.936676 0.000000 0.000000 0.000000 0.548781 -0.243902 -0.121951 0.023926 -0.001465 1.024414 0.000000 0.000000 0.000000 1.000000 1.000000 1.000000 1.000000
4118649637 2000 -1.050930 1.420051 -159.936859 0.000000 0.000000 0.000000 0.853659 -0.060976 -0.121951 0.019043 -0.014648 1.025879 0.000000 0.000000 0.000000 1.000000 1.000000 1.000000 1.000000
4118651637 2000 -1.050721 1.419529 -159.936798 0.000000 0.000000 0.000000 0.487805 0.182927 0.000000 0.022461 -0.000977 1.013184 0.000000 0.000000 0.000000 1.000000 1.000000 1.000000 1.000000
4118653637 2000 -1.051637 1.421179 -159.937256 0.000000 0.000000 0.000000 0.975610 0.243902 -0.243902 0.034180 0.009766 1.026855 0.000000 0.000000 0.000000 1.000000 1.000000 1.000000 1.000000
4118655637 2000 -1.051664 1.421305 -159.937317 0.000000 0.000000 0.000000 0.975610 0.060976 -0.060976 0.022461 -0.003906 1.014648 0.000000 0.000000 0.000000 1.000000 1.000000 1.000000 1.000000
4118657637 2000 -1.051131 1.421735 -159.937378 0.000000 0.000000 0.000000 0.670732 0.365854 -0.060976 0.023438 0.004395 1.037598 0.000000 0.000000 0.000000 1.000000 1.000000 1.000000 1.000000
4118659637 2000 -1.051569 1.421296 -159.936584 0.000000 0.000000 0.000000 0.914634 0.121951 0.365854 0.027344 -0.007812 1.026367 0.000000 0.000000 0.000000 1.000000 1.000000 1.000000 1.000000
4118661637 2000 -1.051755 1.421088 -159.936279 0.000000 0.000000 0.000000 0.487805 0.121951 0.121951 0.025391 0.001953 1.034668 0.000000 0.000000 0.000000 1.000000 1.000000 1.000000 1.000000
4118663637 2000 -1.050730 1.421769 -159.936340 0.000000 0.000000 0.000000 0.792683 0.548781 -0.060976 0.021973 0.004395 1.024414 0.000000 0.000000 0.000000 1.000000 1.000000 1.000000 1.000000
4118665637 2000 -1.050663 1.421517 -159.936157 0.000000 0.000000 0.000000 0.731707 0.243902 0.060976 0.025391 -0.002930 1.037598 0.000000 0.000000 0.000000 1.000000 1.000000 1.000000 1.000000
4118667637 2000 -1.050952 1.422201 -159.936249 0.000000 0.000000 0.000000 0.792683 0.060976 -0.060976 0.024902 0.004395 1.019043 0.000000 0.000000 0.000000 1.000000 1.000000 1.000000 1.000000
4118669637 2000 -1.050978 1.422218 -159.936295 0.000000 0.000000 0.000000 0.731707 0.365854 -0.060976 0.028320 -0.000488 1.029785 0.000000 0.000000 0.000000 1.000000 1.000000 1.000000 1.000000
4118671637 2000 -1.050175 1.422485 -159.936737 0.000000 0.000000 0.000000 0.609756 0.243902 -0.243902 0.018555 0.003906 1.024414 0.000000 0.000000 0.000000 1.000000 1.000000 1.000000 1.000000
4118673637 2000 -1.050590 1.422259 -159.936813 0.000000 0.000000 0.000000 0.609756 0.000000 -0.060976 0.024902 -0.000488 1.018066 0.000000 0.000000 0.000000 1.000000 1.000000 1.000000 1.000000
4118675637 2000 -1.051009 1.421158 -159.936508 0.000000 0.000000 0.000000 0.609756 0.000000 0.121951 0.024902 -0.008301 1.019531 0.000000 0.000000 0.000000 1.000000 1.000000 1.000000 1.000000
4118677637 2000 -1.051132 1.421163 -159.936569 0.000000 0.000000 0.000000 0.670732 0.121951 -0.060976 0.024902 0.000488 1.035156 0.000000 0.000000 0.000000 1.000000 1.000000 1.000000 1.000000
4118679637 2000 -1.051875 1.421698 -159.936783 0.000000 0.000000 0.000000 0.670732 0.060976 -0.121951 0.029785 0.005371 1.045898 0.000000 0.000000 0.000000 1.000000 1.000000 1.000000 1.000000
4118681637 2000 -1.050719 1.421585 -159.937103 0.000000 0.000000 0.000000 0.609756 0.121951 -0.182927 0.013184 0.000488 1.027344 0.000000 0.000000 0.000000 1.000000 1.000000 1.000000 1.000000
4118683637 2000 -1.050232 1.421256 -159.937424 0.000000 0.000000 0.000000 0.609756 0.121951 -0.182927 0.019043 -0.001465 1.017578 0.000000 0.000000 0.000000 1.000000 1.000000 1.000000 1.000000
4118685637 2000 -1.050431 1.421179 -159.937225 0.000000 0.000000 0.000000 1.036585 0.182927 0.060976 0.026367 -0.006836 1.024902 0.000000 0.000000 0.000000 1.000000 1.000000 1.000000 1.000000
4118687637 2000 -1.051762 1.421678 -159.936966 0.000000 0.000000 0.000000 0.731707 -0.304878 0.121951 0.027832 0.003906 1.026855 0.000000 0.000000 0.000000 1.000000 1.000000 1.000000 1.000000
4118689637 2000 -1.051042 1.421909 -159.936768 0.000000 0.000000 0.000000 0.731707 0.243902 0.060976 0.019043 0.001465 1.017090 0.000000 0.000000 0.000000 1.000000 1.000000 1.000000 1.000000
4118691637 2000 -1.051626 1.422527 -159.936508 0.000000 0.000000 0.000000 0.792683 -0.121951 0.121951 0.024414 0.003906 1.028320 0.000000 0.000000 0.000000 1.000000 1.000000 1.000000 1.000000
4118693637 2000 -1.053419 1.421992 -159.936707 0.000000 0.000000 0.000000 0.426829 -0.121951 -0.121951 0.035645 0.000000 1.032227 0.000000 0.000000 0.000000 1.000000 1.000000 1.000000 1.000000
4118695637 2000 -1.052917 1.422499 -159.936783 0.000000 0.000000 0.000000 0.731707 0.182927 -0.060976 0.020020 0.003906 1.018555 0.000000 0.000000 0.000000 1.000000 1.000000 1.000000 1.000000
4118697637 2000 -1.054262 1.422325 -159.936737 0.000000 0.000000 0.000000 0.609756 0.182927 0.000000 0.036621 0.000000 1.019043 0.000000 0.000000 0.000000 1.000000 1.000000 1.000000 1.000000
4118699637 2000 -1.054938 1.422221 -159.936081 0.000000 0.000000 0.000000 0.731707 -0.243902 0.304878 0.022461 -0.001465 1.003906 0.000000 0.000000 0.000000 1.000000 1.000000 1.000000 1.000000
4118701637 2000 -1.054128 1.422382 -159.936035 0.000000 0.000000 0.000000 0.670732 0.000000 0.000000 0.014160 0.001953 1.032227 0.000000 0.000000 0.000000 1.000000 1.000000 1.000000 1.000000
4118703637 2000 -1.054093 1.422310 -159.936356 0.000000 0.000000 0.000000 0.792683 0.121951 -0.182927 0.023438 -0.002441 1.029785 0.000000 0.000000 0.000000 1.000000 1.000000 1.000000 1.000000
4118705637 2000 -1.054157 1.422654 -159.937149 0.000000 0.000000 0.000000 0.914634 0.243902 -0.426829 0.026855 -0.000977 1.037109 0.000000 0.000000 0.000000 1.000000 1.000000 1.000000 1.000000
4118707637 2000 -1.055223 1.422596 -159.937210 0.000000 0.000000 0.000000 0.853659 0.121951 -0.060976 0.033691 -0.003418 1.039062 0.000000 0.000000 0.000000 1.000000 1.000000 1.000000 1.000000
4118709637 2000 -1.055078 1.422165 -159.937149 0.000000 0.000000 0.000000 0.670732 0.182927 0.000000 0.023438 -0.003418 1.027344 0.000000 0.000000 0.000000 1.000000 1.000000 1.000000 1.000000
4118711637 2000 -1.054569 1.422090 -159.937210 0.000000 0.000000 0.000000 0.548781 0.487805 -0.060976 0.025391 0.001953 1.015625 0.000000 0.000000 0.000000 1.000000 1.000000 1.000000 1.000000
4118713637 2000 -1.055145 1.421735 -159.936768 0.000000 0.000000 0.000000 0.792683 0.182927 0.182927 0.029785 -0.004883 1.024414 0.000000 0.000000 0.000000 1.000000 1.000000 1.000000 1.000000
4118715637 2000 -1.055228 1.422228 -159.936615 0.000000 0.000000 0.000000 0.731707 0.000000 0.060976 0.022461 0.003906 1.041016 0.000000 0.000000 0.000000 1.000000 1.000000 1.000000 1.000000
4118717637 2000 -1.055100 1.421659 -159.936447 0.000000 0.000000 0.000000 0.304878 0.182927 0.060976 0.023438 0.001953 1.021973 0.000000 0.000000 0.000000 1.000000 1.000000 1.000000 1.000000
4118719637 2000 -1.054832 1.422193 -159.936630 0.000000 0.000000 0.000000 0.853659 0.243902 -0.121951 0.023438 0.001953 1.025879 0.000000 0.000000 0.000000 1.000000 1.000000 1.000000 1.000000
4118721637 2000 -1.055494 1.422195 -159.935867 0.000000 0.000000 0.000000 0.731707 -0.182927 0.365854 0.023926 -0.000488 1.026367 0.000000 0.000000 0.000000 1.000000 1.000000 1.000000 1.000000
4118723637 2000 -1.055148 1.421737 -159.935791 0.000000 0.000000 0.000000 0.792683 0.182927 0.000000 0.021484 -0.005859 1.020996 0.000000 0.000000 0.000000 1.000000 1.000000 1.000000 1.000000
4118725637 2000 -1.055603 1.421764 -159.935867 0.000000 0.000000 0.000000 0.548781 0.243902 -0.060976 0.030273 0.002930 1.036621 0.000000 0.000000 0.000000 1.000000 1.000000 1.000000 1.000000
4118727637 2000 -1.054803 1.421776 -159.936279 0.000000 0.000000 0.000000 0.670732 0.243902 -0.243902 0.018555 0.000488 1.018555 0.000000 0.000000 0.000000 1.000000 1.000000 1.000000 1.000000
4118729637 2000 -1.054574 1.421330 -159.936584 0.000000 0.000000 0.000000 0.792683 0.243902 -0.182927 0.023926 -0.005859 1.030762 0.000000 0.000000 0.000000 1.000000 1.000000 1.000000 1.000000
4120172113 1442476 -1.334640 1.650537 -159.643661 0.000000 0.000000 0.000000 0.670732 0.000000 0.182927 0.024902 0.003418 1.029297 0.000000 0.000000 0.000000 1.000000 1.000000 1.000000 1.000000
4120174113 2000 -1.333019 1.650117 -159.643814 0.000000 0.000000 0.000000 0.792683 0.426829 -0.121951 0.019531 -0.001465 1.025879 0.000000 0.000000 0.000000 1.000000 1.000000 1.000000 1.000000
4120176113 2000 -1.332326 1.648675 -159.643707 0.000000 0.000000 0.000000 0.792683 0.121951 0.000000 0.022461 -0.010742 1.031738 0.000000 0.000000 0.000000 1.000000 1.000000 1.000000 1.000000
4120178113 2000 -1.332212 1.648683 -159.644012 0.000000 0.000000 0.000000 0.731707 0.060976 -0.182927 0.026367 0.003418 1.018066 0.000000 0.000000 0.000000 1.000000 1.000000 1.000000 1.000000
4120180113 2000 -1.331453 1.648393 -159.643814 0.000000 0.000000 0.000000 0.670732 0.060976 0.060976 0.020508 0.001953 1.021484 0.000000 0.000000 0.000000 1.000000 1.000000 1.000000 1.000000
4120182113 2000 -1.330127 1.648800 -159.643753 0.000000 0.000000 0.000000 0.609756 0.182927 0.000000 0.017578 0.009277 1.019043 0.000000 0.000000 0.000000 1.000000 1.000000 1.000000 1.000000
4120184113 2000 -1.330122 1.646241 -159.643402 0.000000 0.000000 0.000000 0.426829 0.060976 0.121951 0.027344 -0.014160 1.025879 0.000000 0.000000 0.000000 1.000000 1.000000 1.000000 1.000000
4120186113 2000 -1.329897 1.646675 -159.643219 0.000000 0.000000 0.000000 0.731707 0.121951 0.060976 0.026367 0.007324 1.020996 0.000000 0.000000 0.000000 1.000000 1.000000 1.000000 1.000000
4120188113 2000 -1.329204 1.646949 -159.643280 0.000000 0.000000 0.000000 0.975610 -0.060976 -0.060976 0.019043 0.001465 1.027344 0.000000 0.000000 0.000000 1.000000 1.000000 1.000000 1.000000
4120190113 2000 -1.328357 1.646085 -159.643082 0.000000 0.000000 0.000000 0.731707 0.121951 0.060976 0.020996 -0.004395 1.033691 0.000000 0.000000 0.000000 1.000000 1.000000 1.000000 1.000000
4120192113 2000 -1.327902 1.646527 -159.642776 0.000000 0.000000 0.000000 0.548781 -0.060976 0.121951 0.020996 0.010742 1.023438 0.000000 0.000000 0.000000 1.000000 1.000000 1.000000 1.000000
4120194113 2000 -1.328025 1.645859 -159.642822 0.000000 0.000000 0.000000 0.853659 0.121951 -0.060976 0.029785 -0.004883 1.029785 0.000000 0.000000 0.000000 1.000000 1.000000 1.000000 1.000000
4120196113 2000 -1.327671 1.645794 -159.642731 0.000000 0.000000 0.000000 0.914634 0.182927 0.000000 0.026367 -0.000488 1.023926 0.000000 0.000000 0.000000 1.000000 1.000000 1.000000 1.000000
4120198113 2000 -1.327404 1.645488 -159.642776 0.000000 0.000000 0.000000 0.548781 0.243902 -0.060976 0.028320 0.003906 1.024902 0.000000 0.000000 0.000000 1.000000 1.000000 1.000000 1.000000
4120200113 2000 -1.327176 1.645321 -159.643082 0.000000 0.000000 0.000000 0.670732 0.000000 -0.182927 0.024414 0.002930 1.028809 0.000000 0.000000 0.000000 1.000000 1.000000 1.000000 1.000000
4120202113 2000 -1.325880 1.644827 -159.643097 0.000000 0.000000 0.000000 0.914634 0.304878 -0.060976 0.020020 -0.004395 1.021484 0.000000 0.000000 0.000000 1.000000 1.000000 1.000000 1.000000
4120204113 2000 -1.324675 1.643708 -159.643127 0.000000 0.000000 0.000000 0.792683 0.182927 -0.060976 0.018555 -0.007812 1.017090 0.000000 0.000000 0.000000 1.000000 1.000000 1.000000 1.000000
4120206113 2000 -1.323120 1.643658 -159.642807 0.000000 0.000000 0.000000 0.731707 0.121951 0.121951 0.014160 0.002930 1.015137 0.000000 0.000000 0.000000 1.000000 1.000000 1.000000 1.000000
4120208113 2000 -1.322082 1.643470 -159.642487 0.000000 0.000000 0.000000 0.853659 0.182927 0.121951 0.020020 -0.000488 1.022949 0.000000 0.000000 0.000000 1.000000 1.000000 1.000000 1.000000
4120210113 2000 -1.320844 1.642746 -159.642395 0.000000 0.000000 0.000000 0.609756 0.365854 0.000000 0.021484 -0.000977 1.019043 0.000000 0.000000 0.000000 1.000000 1.000000 1.000000 1.000000
4120212113 2000 -1.320474 1.640420 -159.642670 0.000000 0.000000 0.000000 0.609756 -0.243902 -0.182927 0.018555 -0.015625 1.028320 0.000000 0.000000 0.000000 1.000000 1.000000 1.000000 1.000000
4120214113 2000 -1.320368 1.638995 -159.643051 0.000000 0.000000 0.000000 0.548781 0.121951 -0.243902 0.027344 -0.006348 1.018066 0.000000 0.000000 0.000000 1.000000 1.000000 1.000000 1.000000
4120216113 2000 -1.320431 1.637906 -159.643097 0.000000 0.000000 0.000000 0.609756 0.060976 -0.060976 0.027832 -0.004395 1.023926 0.000000 0.000000 0.000000 1.000000 1.000000 1.000000 1.000000
4120218113 2000 -1.319754 1.637270 -159.642639 0.000000 0.000000 0.000000 0.731707 0.121951 0.182927 0.022461 -0.002441 1.039551 0.000000 0.000000 0.000000 1.000000 1.000000 1.000000 1.000000
4120220113 2000 -1.319418 1.637373 -159.642700 0.000000 0.000000 0.000000 0.853659 0.121951 -0.060976 0.025391 0.001953 1.026855 0.000000 0.000000 0.000000 1.000000 1.000000 1.000000 1.000000
4120222113 2000 -1.317598 1.636626 -159.642349 0.000000 0.000000 0.000000 0.731707 0.426829 0.121951 0.017090 -0.003418 1.011230 0.000000 0.000000 0.000000 1.000000 1.000000 1.000000 1.000000
4120224113 2000 -1.317621 1.636563 -159.642166 0.000000 0.000000 0.000000 0.853659 0.000000 0.060976 0.026367 0.000488 1.028320 0.000000 0.000000 0.000000 1.000000 1.000000 1.000000 1.000000
4120226113 2000 -1.317493 1.636092 -159.641846 0.000000 0.000000 0.000000 0.731707 0.000000 0.121951 0.024902 -0.000977 1.025391 0.000000 0.000000 0.000000 1.000000 1.000000 1.000000 1.000000
4120228113 2000 -1.316371 1.635789 -159.641754 0.000000 0.000000 0.000000 0.975610 0.121951 0.000000 0.018066 -0.003906 1.020020 0.000000 0.000000 0.000000 1.000000 1.000000 1.000000 1.000000
4120230113 2000 -1.315203 1.635164 -159.641663 0.000000 0.000000 0.000000 0.731707 0.243902 0.000000 0.020020 -0.002441 1.029785 0.000000 0.000000 0.000000 1.000000 1.000000 1.000000 1.000000
4120232113 2000 -1.313438 1.634789 -159.641815 0.000000 0.000000 0.000000 0.609756 0.365854 -0.121951 0.016602 0.001953 1.014648 0.000000 0.000000 0.000000 1.000000 1.000000 1.000000 1.000000
4120234113 2000 -1.312764 1.634449 -159.641876 0.000000 0.000000 0.000000 0.548781 0.243902 -0.060976 0.024414 0.003418 1.026367 0.000000 0.000000 0.000000 1.000000 1.000000 1.000000 1.000000
4120236113 2000 -1.312200 1.633982 -159.642151 0.000000 0.000000 0.000000 0.670732 0.243902 -0.182927 0.025391 0.000000 1.023438 0.000000 0.000000 0.000000 1.000000 1.000000 1.000000 1.000000
4120238113 2000 -1.312284 1.633401 -159.642075 0.000000 0.000000 0.000000 0.914634 -0.182927 0.000000 0.023438 -0.005371 1.023926 0.000000 0.000000 0.000000 1.000000 1.000000 1.000000 1.000000
4120240113 2000 -1.310145 1.632061 -159.642349 0.000000 0.000000 0.000000 0.609756 0.243902 -0.182927 0.011230 -0.006836 1.030273 0.000000 0.000000 0.000000 1.000000 1.000000 1.000000 1.000000
4120242113 2000 -1.309367 1.630994 -159.642258 0.000000 0.000000 0.000000 0.670732 0.121951 0.000000 0.020996 -0.005371 1.018555 0.000000 0.000000 0.000000 1.000000 1.000000 1.000000 1.000000
4120244113 2000 -1.310096 1.630345 -159.642319 0.000000 0.000000 0.000000 0.792683 -0.060976 -0.060976 0.031738 -0.003906 1.033203 0.000000 0.000000 0.000000 1.000000 1.000000 1.000000 1.000000
4120246113 2000 -1.309438 1.628816 -159.642456 0.000000 0.000000 0.000000 0.487805 0.182927 -0.121951 0.023438 -0.006348 1.027344 0.000000 0.000000 0.000000 1.000000 1.000000 1.000000 1.000000
4120248113 2000 -1.309639 1.627422 -159.641876 0.000000 0.000000 0.000000 0.426829 0.121951 0.243902 0.029785 -0.003906 1.022461 0.000000 0.000000 0.000000 1.000000 1.000000 1.000000 1.000000
4120250113 2000 -1.308680 1.626827 -159.641296 0.000000 0.000000 0.000000 0.609756 0.365854 0.243902 0.023926 0.000000 1.031250 0.000000 0.000000 0.000000 1.000000 1.000000 1.000000 1.000000
4120252113 2000 -1.307861 1.625580 -159.640457 0.000000 0.000000 0.000000 0.853659 0.121951 0.365854 0.020508 -0.010254 1.022949 0.000000 0.000000 0.000000 1.000000 1.000000 1.000000 1.000000
4120254113 2000 -1.307187 1.626120 -159.639893 0.000000 0.000000 0.000000 0.853659 0.304878 0.243902 0.025391 0.005859 1.031738 0.000000 0.000000 0.000000 1.000000 1.000000 1.000000 1.000000
4120256113 2000 -1.305860 1.625773 -159.640045 0.000000 0.000000 0.000000 0.914634 0.182927 -0.121951 0.017090 -0.003418 1.013672 0.000000 0.000000 0.000000 1.000000 1.000000 1.000000 1.000000
4120258113 2000 -1.305623 1.624847 -159.640228 0.000000 0.000000 0.000000 0.487805 -0.121951 -0.121951 0.021484 -0.000977 1.019043 0.000000 0.000000 0.000000 1.000000 1.000000 1.000000 1.000000
4120260113 2000 -1.305311 1.624581 -159.640137 0.000000 0.000000 0.000000 0.792683 0.365854 0.000000 0.029785 -0.000488 1.028320 0.000000 0.000000 0.000000 1.000000 1.000000 1.000000 1.000000
4120262113 2000 -1.304236 1.624335 -159.639832 0.000000 0.000000 0.000000 0.670732 0.000000 0.121951 0.016113 0.001953 1.025391 0.000000 0.000000 0.000000 1.000000 1.000000 1.000000 1.000000
4120264113 2000 -1.303226 1.623433 -159.639847 0.000000 0.000000 0.000000 0.853659 0.243902 -0.060976 0.020996 -0.007324 1.017090 0.000000 0.000000 0.000000 1.000000 1.000000 1.000000 1.000000
4120266113 2000 -1.303165 1.623571 -159.639297 0.000000 0.000000 0.000000 0.731707 0.182927 0.243902 0.028809 0.004395 1.036621 0.000000 0.000000 0.000000 1.000000 1.000000 1.000000 1.000000
4120268113 2000 -1.302766 1.622858 -159.639328 0.000000 0.000000 0.000000 0.914634 0.000000 -0.060976 0.022461 -0.006836 1.034180 0.000000 0.000000 0.000000 1.000000 1.000000 1.000000 1.000000
4120270113 2000 -1.302450 1.622165 -159.639374 0.000000 0.000000 0.000000 0.548781 0.243902 -0.060976 0.027344 0.000000 1.021973 0.000000 0.000000 0.000000 1.000000 1.000000 1.000000 1.000000
4120272113 2000 -1.301143 1.622763 -159.639191 0.000000 0.000000 0.000000 0.792683 0.304878 0.060976 0.019531 0.007324 1.026855 0.000000 0.000000 0.000000 1.000000 1.000000 1.000000 1.000000
4120274113 2000 -1.301101 1.622626 -159.639236 0.000000 0.000000 0.000000 0.853659 0.000000 -0.060976 0.025391 -0.000488 1.021973 0.000000 0.000000 0.000000 1.000000 1.000000 1.000000 1.000000
4120276113 2000 -1.300581 1.622219 -159.639420 0.000000 0.000000 0.000000 0.609756 -0.121951 -0.121951 0.019043 0.001465 1.029297 0.000000 0.000000 0.000000 1.000000 1.000000 1.000000 1.000000
4120278113 2000 -1.298980 1.621890 -159.639343 0.000000 0.000000 0.000000 0.731707 0.243902 0.000000 0.015625 0.000000 1.018066 0.000000 0.000000 0.000000 1.000000 1.000000 1.000000 1.000000
4120280113 2000 -1.298617 1.620649 -159.639130 0.000000 0.000000 0.000000 0.731707 0.121951 0.060976 0.024902 -0.008301 1.035156 0.000000 0.000000 0.000000 1.000000 1.000000 1.000000 1.000000
4120282113 2000 -1.298261 1.620072 -159.638535 0.000000 0.000000 0.000000 0.853659 0.182927 0.243902 0.025879 -0.004395 1.031250 0.000000 0.000000 0.000000 1.000000 1.000000 1.000000 1.000000
4120284113 2000 -1.298911 1.619946 -159.638367 0.000000 0.000000 0.000000 0.670732 0.000000 0.060976 0.031738 0.002930 1.028809 0.000000 0.000000 0.000000 1.000000 1.000000 1.000000 1.000000
4120286113 2000 -1.298280 1.620068 -159.638794 0.000000 0.000000 0.000000 0.731707 0.000000 -0.243902 0.020020 0.003906 1.016602 0.000000 0.000000 0.000000 1.000000 1.000000 1.000000 1.000000
4120288113 2000 -1.297140 1.619437 -159.638947 0.000000 0.000000 0.000000 0.548781 0.304878 -0.121951 0.020996 0.000488 1.023438 0.000000 0.000000 0.000000 1.000000 1.000000 1.000000 1.000000
4120290113 2000 -1.297181 1.619109 -159.638626 0.000000 0.000000 0.000000 0.731707 0.182927 0.121951 0.029297 0.000000 1.022949 0.000000 0.000000 0.000000 1.000000 1.000000 1.000000 1.000000
4120292113 2000 -1.297349 1.618439 -159.638199 0.000000 0.000000 0.000000 0.670732 -0.243902 0.182927 0.022461 -0.001953 1.011719 0.000000 0.000000 0.000000 1.000000 1.000000 1.000000 1.000000
4120294113 2000 -1.296764 1.618703 -159.638245 0.000000 0.000000 0.000000 0.914634 0.304878 -0.060976 0.025879 0.001953 1.020020 0.000000 0.000000 0.000000 1.000000 1.000000 1.000000 1.000000
4120296113 2000 -1.296785 1.617686 -159.637787 0.000000 0.000000 0.000000 0.548781 0.182927 0.182927 0.029297 -0.002930 1.030762 0.000000 0.000000 0.000000 1.000000 1.000000 1.000000 1.000000
4120298113 2000 -1.296937 1.616696 -159.637833 0.000000 0.000000 0.000000 0.609756 0.000000 -0.060976 0.027344 -0.003906 1.032715 0.000000 0.000000 0.000000 1.000000 1.000000 1.000000 1.000000
4120300113 2000 -1.296916 1.616718 -159.638382 0.000000 0.000000 0.000000 0.975610 -0.060976 -0.304878 0.024414 -0.001465 1.017090 0.000000 0.000000 0.000000 1.000000 1.000000 1.000000 1.000000
4120302113 2000 -1.295476 1.616050 -159.638412 0.000000 0.000000 0.000000 0.609756 0.243902 -0.060976 0.017090 -0.000977 1.021973 0.000000 0.000000 0.000000 1.000000 1.000000 1.000000 1.000000
4120304113 2000 -1.294925 1.616549 -159.638367 0.000000 0.000000 0.000000 0.975610 0.000000 0.000000 0.020508 0.002930 1.014160 0.000000 0.000000 0.000000 1.000000 1.000000 1.000000 1.000000
4120306113 2000 -1.294223 1.616002 -159.638275 0.000000 0.000000 0.000000 0.670732 0.243902 0.000000 0.023926 -0.000977 1.032227 0.000000 0.000000 0.000000 1.000000 1.000000 1.000000 1.000000
4120308113 2000 -1.293511 1.615382 -159.637939 0.000000 0.000000 0.000000 0.853659 0.182927 0.121951 0.022461 -0.004883 1.023438 0.000000 0.000000 0.000000 1.000000 1.000000 1.000000 1.000000
4120310113 2000 -1.292501 1.615123 -159.637985 0.000000 0.000000 0.000000 0.731707 0.243902 -0.060976 0.020996 0.000488 1.025879 0.000000 0.000000 0.000000 1.000000 1.000000 1.000000 1.000000
4120312113 2000 -1.291991 1.615271 -159.638412 0.000000 0.000000 0.000000 0.792683 0.060976 -0.243902 0.021973 0.002930 1.011230 0.000000 0.000000 0.000000 1.000000 1.000000 1.000000 1.000000
4120314113 2000 -1.291632 1.614544 -159.638702 0.000000 0.000000 0.000000 0.548781 0.000000 -0.182927 0.022461 -0.000488 1.023438 0.000000 0.000000 0.000000 1.000000 1.000000 1.000000 1.000000
4120316113 2000 -1.291380 1.614108 -159.638519 0.000000 0.000000 0.000000 0.670732 0.182927 0.060976 0.026367 0.000000 1.014648 0.000000 0.000000 0.000000 1.000000 1.000000 1.000000 1.000000
4120318113 2000 -1.290051 1.613200 -159.638535 0.000000 0.000000 0.000000 0.731707 0.060976 -0.060976 0.014648 -0.005371 1.018555 0.000000 0.000000 0.000000 1.000000 1.000000 1.000000 1.000000
4120320113 2000 -1.289494 1.612704 -159.638702 0.000000 0.000000 0.000000 0.853659 0.243902 -0.121951 0.024902 -0.003906 1.019043 0.000000 0.000000 0.000000 1.000000 1.000000 1.000000 1.000000
4120322113 2000 -1.288756 1.612000 -159.638519 0.000000 0.000000 0.000000 0.670732 0.060976 0.060976 0.020020 -0.002441 1.026367 0.000000 0.000000 0.000000 1.000000 1.000000 1.000000 1.000000
4120324113 2000 -1.288615 1.611689 -159.638931 0.000000 0.000000 0.000000 0.670732 0.000000 -0.243902 0.024414 0.000977 1.023926 0.000000 0.000000 0.000000 1.000000 1.000000 1.000000 1.000000
4120326113 2000 -1.286703 1.611112 -159.639450 0.000000 0.000000 0.000000 0.670732 0.304878 -0.304878 0.014160 -0.001465 1.040039 0.000000 0.000000 0.000000 1.000000 1.000000 1.000000 1.000000
4120328113 2000 -1.285690 1.610201 -159.639023 0.000000 0.000000 0.000000 0.487805 0.060976 0.182927 0.017578 -0.000977 1.035156 0.000000 0.000000 0.000000 1.000000 1.000000 1.000000 1.000000
4120330113 2000 -1.284817 1.609846 -159.639191 0.000000 0.000000 0.000000 0.731707 0.182927 -0.121951 0.020996 -0.000488 1.024414 0.000000 0.000000 0.000000 1.000000 1.000000 1.000000 1.000000
4120332113 2000 -1.284577 1.609342 -159.639359 0.000000 0.000000 0.000000 0.548781 0.121951 -0.121951 0.025879 0.001465 1.035645 0.000000 0.000000 0.000000 1.000000 1.000000 1.000000 1.000000
4120334113 2000 -1.283731 1.609477 -159.638931 0.000000 0.000000 0.000000 0.792683 0.182927 0.182927 0.020996 0.002930 1.020996 0.000000 0.000000 0.000000 1.000000 1.000000 1.000000 1.000000
4120336113 2000 -1.283176 1.609541 -159.639099 0.000000 0.000000 0.000000 0.670732 0.182927 -0.121951 0.023926 0.004395 1.028320 0.000000 0.000000 0.000000 1.000000 1.000000 1.000000 1.000000
4120338113 2000 -1.282368 1.608886 -159.639130 0.000000 0.000000 0.000000 0.853659 0.243902 -0.060976 0.022461 -0.005371 1.018066 0.000000 0.000000 0.000000 1.000000 1.000000 1.000000 1.000000
4120340113 2000 -1.282509 1.608468 -159.639053 0.000000 0.000000 0.000000 0.914634 0.121951 0.000000 0.029297 -0.004395 1.037109 0.000000 0.000000 0.000000 1.000000 1.000000 1.000000 1.000000
4120342113 2000 -1.282045 1.607955 -159.639084 0.000000 0.000000 0.000000 0.731707 0.243902 -0.060976 0.025879 -0.001953 1.031250 0.000000 0.000000 0.000000 1.000000 1.000000 1.000000 1.000000
4120344113 2000 -1.282750 1.608064 -159.639145 0.000000 0.000000 0.000000 0.853659 0.000000 -0.060976 0.031738 0.001465 1.020508 0.000000 0.000000 0.000000 1.000000 1.000000 1.000000 1.000000
4120346113 2000 -1.281457 1.607627 -159.639053 0.000000 0.000000 0.000000 0.853659 0.243902 0.000000 0.018066 -0.003418 1.018066 0.000000 0.000000 0.000000 1.000000 1.000000 1.000000 1.000000
4120348113 2000 -1.281454 1.608750 -159.638657 0.000000 0.000000 0.000000 0.914634 -0.121951 0.182927 0.023438 0.009766 1.038086 0.000000 0.000000 0.000000 1.000000 1.000000 1.000000 1.000000
4120350113 2000 -1.280030 1.607806 -159.638306 0.000000 0.000000 0.000000 0.792683 0.365854 0.121951 0.019043 -0.006836 1.020996 0.000000 0.000000 0.000000 1.000000 1.000000 1.000000 1.000000
4120352113 2000 -1.280156 1.607568 -159.638596 0.000000 0.000000 0.000000 0.731707 0.121951 -0.182927 0.028809 0.000488 1.022461 0.000000 0.000000 0.000000 1.000000 1.000000 1.000000 1.000000
4120354113 2000 -1.280350 1.607510 -159.637924 0.000000 0.000000 0.000000 0.670732 0.121951 0.304878 0.029297 0.003418 1.026855 0.000000 0.000000 0.000000 1.000000 1.000000 1.000000 1.000000
4120356113 2000 -1.280939 1.606631 -159.637360 0.000000 0.000000 0.000000 0.609756 -0.060976 0.243902 0.029297 -0.002930 1.016602 0.000000 0.000000 0.000000 1.000000 1.000000 1.000000 1.000000
4120358113 2000 -1.281447 1.607492 -159.637192 0.000000 0.000000 0.000000 0.853659 0.121951 0.060976 0.032227 0.008301 1.024902 0.000000 0.000000 0.000000 1.000000 1.000000 1.000000 1.000000
4120360113 2000 -1.280002 1.606515 -159.637238 0.000000 0.000000 0.000000 0.609756 0.243902 -0.060976 0.016602 -0.003906 1.011719 0.000000 0.000000 0.000000 1.000000 1.000000 1.000000 1.000000
4120362113 2000 -1.278805 1.606972 -159.637421 0.000000 0.000000 0.000000 0.731707 -0.060976 -0.121951 0.013672 0.006836 1.032715 0.000000 0.000000 0.000000 1.000000 1.000000 1.000000 1.000000
4120364113 2000 -1.278018 1.606400 -159.637222 0.000000 0.000000 0.000000 0.731707 0.182927 0.060976 0.021484 -0.002441 1.020996 0.000000 0.000000 0.000000 1.000000 1.000000 1.000000 1.000000
4120366113 2000 -1.276904 1.606879 -159.636917 0.000000 0.000000 0.000000 0.609756 0.182927 0.121951 0.018555 0.009277 1.024414 0.000000 0.000000 0.000000 1.000000 1.000000 1.000000 1.000000
4120368113 2000 -1.276707 1.606415 -159.636734 0.000000 0.000000 0.000000 0.487805 -0.060976 0.060976 0.022461 0.002930 1.024902 0.000000 0.000000 0.000000 1.000000 1.000000 1.000000 1.000000
4120370113 2000 -1.276840 1.606427 -159.636536 0.000000 0.000000 0.000000 0.914634 0.182927 0.060976 0.029785 -0.000488 1.022461 0.000000 0.000000 0.000000 1.000000 1.000000 1.000000 1.000000
4120372113 2000 -1.276442 1.605502 -159.636566 0.000000 0.000000 0.000000 0.792683 0.243902 -0.060976 0.026367 -0.006836 1.031250 0.000000 0.000000 0.000000 1.000000 1.000000 1.000000 1.000000
4120374113 2000 -1.275836 1.606283 -159.636734 0.000000 0.000000 0.000000 1.158537 0.121951 -0.121951 0.021973 0.001953 1.016602 0.000000 0.000000 0.000000 1.000000 1.000000 1.000000 1.000000
4120376113 2000 -1.274490 1.605198 -159.636887 0.000000 0.000000 0.000000 0.792683 0.182927 -0.121951 0.016602 -0.008301 1.028809 0.000000 0.000000 0.000000 1.000000 1.000000 1.000000 1.000000
4120378113 2000 -1.273896 1.604751 -159.637054 0.000000 0.000000 0.000000 0.975610 0.182927 -0.121951 0.023438 -0.005859 1.029785 0.000000 0.000000 0.000000 1.000000 1.000000 1.000000 1.000000
4120380113 2000 -1.273473 1.605051 -159.636978 0.000000 0.000000 0.000000 0.731707 0.243902 0.000000 0.025879 0.005371 1.023926 0.000000 0.000000 0.000000 1.000000 1.000000 1.000000 1.000000
4120382113 2000 -1.273389 1.605545 -159.636307 0.000000 0.000000 0.000000 0.914634 0.121951 0.304878 0.026367 0.003906 1.015625 0.000000 0.000000 0.000000 1.000000 1.000000 1.000000 1.000000
4120384113 2000 -1.272710 1.605175 -159.635971 0.000000 0.000000 0.000000 0.670732 0.365854 0.121951 0.025879 0.000488 1.031250 0.000000 0.000000 0.000000 1.000000 1.000000 1.000000 1.000000
4120386113 2000 -1.272069 1.605280 -159.635666 0.000000 0.000000 0.000000 0.853659 0.060976 0.121951 0.020508 0.001465 1.023438 0.000000 0.000000 0.000000 1.000000 1.000000 1.000000 1.000000
4120388113 2000 -1.271050 1.604679 -159.635818 0.000000 0.000000 0.000000 0.548781 0.304878 -0.121951 0.021484 0.000488 1.017090 0.000000 0.000000 0.000000 1.000000 1.000000 1.000000 1.000000
4120390113 2000 -1.271476 1.605373 -159.635895 0.000000 0.000000 0.000000 1.036585 0.000000 -0.060976 0.029297 0.003418 1.029785 0.000000 0.000000 0.000000 1.000000 1.000000 1.000000 1.000000
4120392113 2000 -1.271916 1.604973 -159.635941 0.000000 0.000000 0.000000 0.731707 -0.060976 -0.060976 0.028320 -0.000977 1.029785 0.000000 0.000000 0.000000 1.000000 1.000000 1.000000 1.000000
4120394113 2000 -1.271213 1.603769 -159.636215 0.000000 0.000000 0.000000 0.792683 0.182927 -0.182927 0.021973 -0.009277 1.009277 0.000000 0.000000 0.000000 1.000000 1.000000 1.000000 1.000000
4120396113 2000 -1.270673 1.603946 -159.636627 0.000000 0.000000 0.000000 0.853659 0.182927 -0.243902 0.023926 0.001953 1.029297 0.000000 0.000000 0.000000 1.000000 1.000000 1.000000 1.000000
4120398113 2000 -1.270060 1.603860 -159.636688 0.000000 0.000000 0.000000 0.670732 0.426829 -0.060976 0.027344 0.002930 1.020508 0.000000 0.000000 0.000000 1.000000 1.000000 1.000000 1.000000
4120400113 2000 -1.270546 1.604378 -159.636490 0.000000 0.000000 0.000000 0.731707 0.121951 0.060976 0.031738 0.007324 1.021973 0.000000 0.000000 0.000000 1.000000 1.000000 1.000000 1.000000
4120402113 2000 -1.269923 1.603793 -159.636673 0.000000 0.000000 0.000000 0.853659 -0.060976 -0.121951 0.018555 -0.004883 1.023438 0.000000 0.000000 0.000000 1.000000 1.000000 1.000000 1.000000
4120404113 2000 -1.269195 1.603157 -159.636963 0.000000 0.000000 0.000000 0.609756 0.121951 -0.182927 0.020996 -0.000977 1.026855 0.000000 0.000000 0.000000 1.000000 1.000000 1.000000 1.000000
4120406113 2000 -1.269580 1.602576 -159.637115 0.000000 0.000000 0.000000 0.853659 0.000000 -0.121951 0.028809 -0.004883 1.025879 0.000000 0.000000 0.000000 1.000000 1.000000 1.000000 1.000000
4120408113 2000 -1.269220 1.602433 -159.637558 0.000000 0.000000 0.000000 0.853659 -0.060976 -0.243902 0.020996 -0.000977 1.024414 0.000000 0.000000 0.000000 1.000000 1.000000 1.000000 1.000000
4120410113 2000 -1.268183 1.602377 -159.636978 0.000000 0.000000 0.000000 0.853659 0.243902 0.243902 0.020020 0.000000 1.019043 0.000000 0.000000 0.000000 1.000000 1.000000 1.000000 1.000000
4120412113 2000 -1.267083 1.602455 -159.636414 0.000000 0.000000 0.000000 0.975610 0.182927 0.243902 0.018555 -0.000977 1.030762 0.000000 0.000000 0.000000 1.000000 1.000000 1.000000 1.000000
4120414113 2000 -1.267409 1.601802 -159.636459 0.000000 0.000000 0.000000 0.792683 -0.060976 -0.060976 0.026855 -0.004395 1.016602 0.000000 0.000000 0.000000 1.000000 1.000000 1.000000 1.000000
4120416113 2000 -1.266769 1.601110 -159.636505 0.000000 0.000000 0.000000 0.609756 0.243902 -0.060976 0.023438 -0.001465 1.006836 0.000000 0.000000 0.000000 1.000000 1.000000 1.000000 1.000000
4120418113 2000 -1.267464 1.599986 -159.636307 0.000000 0.000000 0.000000 0.609756 0.060976 0.060976 0.032715 -0.005371 1.030273 0.000000 0.000000 0.000000 1.000000 1.000000 1.000000 1.000000
4120420113 2000 -1.267248 1.600014 -159.636490 0.000000 0.000000 0.000000 0.670732 0.000000 -0.121951 0.023438 0.003906 1.030273 0.000000 0.000000 0.000000 1.000000 1.000000 1.000000 1.000000
4120422113 2000 -1.265979 1.599835 -159.636292 0.000000 0.000000 0.000000 0.731707 0.243902 0.060976 0.018066 0.000977 1.022949 0.000000 0.000000 0.000000 1.000000 1.000000 1.000000 1.000000
4120424113 2000 -1.266130 1.599310 -159.636337 0.000000 0.000000 0.000000 0.609756 0.182927 -0.060976 0.029785 0.000000 1.021484 0.000000 0.000000 0.000000 1.000000 1.000000 1.000000 1.000000
4120426113 2000 -1.264870 1.598260 -159.636353 0.000000 0.000000 0.000000 0.914634 0.182927 -0.060976 0.017090 -0.010254 1.023926 0.000000 0.000000 0.000000 1.000000 1.000000 1.000000 1.000000
4120428113 2000 -1.263869 1.597533 -159.636383 0.000000 0.000000 0.000000 0.914634 0.304878 -0.060976 0.021484 -0.007324 1.017578 0.000000 0.000000 0.000000 1.000000 1.000000 1.000000 1.000000
4120430113 2000 -1.264912 1.597817 -159.636688 0.000000 0.000000 0.000000 1.036585 -0.121951 -0.182927 0.032715 -0.000488 1.032715 0.000000 0.000000 0.000000 1.000000 1.000000 1.000000 1.000000
4120432113 2000 -1.263821 1.597117 -159.636459 0.000000 0.000000 0.000000 0.792683 0.365854 0.060976 0.021973 -0.004883 1.029785 0.000000 0.000000 0.000000 1.000000 1.000000 1.000000 1.000000
4120434113 2000 -1.263567 1.596950 -159.636520 0.000000 0.000000 0.000000 0.731707 0.060976 -0.060976 0.023926 0.000977 1.022949 0.000000 0.000000 0.000000 1.000000 1.000000 1.000000 1.000000
4120436113 2000 -1.263508 1.596439 -159.636322 0.000000 0.000000 0.000000 0.670732 0.060976 0.060976 0.025879 -0.000977 1.033203 0.000000 0.000000 0.000000 1.000000 1.000000 1.000000 1.000000
4120438113 2000 -1.263773 1.595676 -159.636139 0.000000 0.000000 0.000000 0.731707 0.060976 0.060976 0.028809 -0.004395 1.032227 0.000000 0.000000 0.000000 1.000000 1.000000 1.000000 1.000000
4120440113 2000 -1.262937 1.594764 -159.635925 0.000000 0.000000 0.000000 0.792683 0.243902 0.060976 0.021973 -0.006836 1.026367 0.000000 0.000000 0.000000 1.000000 1.000000 1.000000 1.000000
4120442113 2000 -1.262833 1.594814 -159.635849 0.000000 0.000000 0.000000 0.731707 0.121951 0.000000 0.026367 0.002930 1.023926 0.000000 0.000000 0.000000 1.000000 1.000000 1.000000 1.000000
4120444113 2000 -1.262099 1.596124 -159.636169 0.000000 0.000000 0.000000 1.036585 0.182927 -0.182927 0.021973 0.008789 1.029297 0.000000 0.000000 0.000000 1.000000 1.000000 1.000000 1.000000
4120446113 2000 -1.262439 1.595341 -159.635727 0.000000 0.000000 0.000000 0.670732 -0.182927 0.182927 0.024902 -0.003418 1.029785 0.000000 0.000000 0.000000 1.000000 1.000000 1.000000 1.000000
4120448113 2000 -1.261779 1.595055 -159.635788 0.000000 0.000000 0.000000 0.670732 0.000000 -0.060976 0.019043 0.000977 1.017578 0.000000 0.000000 0.000000 1.000000 1.000000 1.000000 1.000000
4120450113 2000 -1.260371 1.594788 -159.635468 0.000000 0.000000 0.000000 0.792683 0.182927 0.121951 0.015625 -0.000977 1.025879 0.000000 0.000000 0.000000 1.000000 1.000000 1.000000 1.000000
4120452113 2000 -1.261164 1.594742 -159.635284 0.000000 0.000000 0.000000 0.792683 -0.243902 0.060976 0.027832 0.000977 1.025879 0.000000 0.000000 0.000000 1.000000 1.000000 1.000000 1.000000
4120454113 2000 -1.260525 1.594666 -159.634979 0.000000 0.000000 0.000000 0.914634 0.182927 0.121951 0.022461 -0.001465 1.020508 0.000000 0.000000 0.000000 1.000000 1.000000 1.000000 1.000000
4120456113 2000 -1.259964 1.593880 -159.634888 0.000000 0.000000 0.000000 0.853659 0.000000 0.000000 0.020020 -0.006836 1.025879 0.000000 0.000000 0.000000 1.000000 1.000000 1.000000 1.000000
4120458113 2000 -1.258946 1.593465 -159.635056 0.000000 0.000000 0.000000 0.792683 0.060976 -0.121951 0.017090 -0.002441 1.028809 0.000000 0.000000 0.000000 1.000000 1.000000 1.000000 1.000000
4120460113 2000 -1.259139 1.592871 -159.634995 0.000000 0.000000 0.000000 0.731707 -0.060976 0.000000 0.025879 -0.002930 1.032227 0.000000 0.000000 0.000000 1.000000 1.000000 1.000000 1.000000
4120462113 2000 -1.258120 1.592402 -159.635010 0.000000 0.000000 0.000000 0.792683 0.304878 -0.060976 0.021484 -0.002930 1.030273 0.000000 0.000000 0.000000 1.000000 1.000000 1.000000 1.000000
4120464157 2044 -1.258043 1.592370 -159.635330 0.000000 0.000000 0.000000 0.792683 0.000000 -0.182927 0.024414 0.000977 1.023438 0.000000 0.000000 0.000000 1.000000 1.000000 1.000000 1.000000
4120466157 2000 -1.258291 1.592874 -159.634903 0.000000 0.000000 0.000000 0.853659 0.243902 0.182927 0.031738 0.004883 1.029297 0.000000 0.000000 0.000000 1.000000 1.000000 1.000000 1.000000
4120468157 2000 -1.257948 1.593341 -159.635117 0.000000 0.000000 0.000000 0.670732 -0.121951 -0.121951 0.020020 0.007812 1.036133 0.000000 0.000000 0.000000 1.000000 1.000000 1.000000 1.000000
4120470157 2000 -1.258309 1.593167 -159.635178 0.000000 0.000000 0.000000 0.670732 0.000000 -0.060976 0.028320 0.001953 1.024902 0.000000 0.000000 0.000000 1.000000 1.000000 1.000000 1.000000
4120472157 2000 -1.258459 1.593105 -159.634857 0.000000 0.000000 0.000000 0.731707 0.182927 0.121951 0.029785 0.001953 1.029785 0.000000 0.000000 0.000000 1.000000 1.000000 1.000000 1.000000
4120474157 2000 -1.259787 1.592826 -159.635056 0.000000 0.000000 0.000000 0.670732 -0.304878 -0.121951 0.031738 0.000977 1.029297 0.000000 0.000000 0.000000 1.000000 1.000000 1.000000 1.000000
4120476157 2000 -1.259169 1.591300 -159.635071 0.000000 0.000000 0.000000 0.670732 0.304878 -0.060976 0.024902 -0.010254 1.020508 0.000000 0.000000 0.000000 1.000000 1.000000 1.000000 1.000000
4120478157 2000 -1.258042 1.591353 -159.634399 0.000000 0.000000 0.000000 0.548781 0.182927 0.304878 0.018066 0.006348 1.027344 0.000000 0.000000 0.000000 1.000000 1.000000 1.000000 1.000000
4120480157 2000 -1.257715 1.590776 -159.634338 0.000000 0.000000 0.000000 0.792683 -0.060976 0.000000 0.020996 -0.003906 1.026367 0.000000 0.000000 0.000000 1.000000 1.000000 1.000000 1.000000
4120482157 2000 -1.256825 1.590565 -159.634384 0.000000 0.000000 0.000000 0.731707 0.000000 -0.060976 0.017090 0.000488 1.029297 0.000000 0.000000 0.000000 1.000000 1.000000 1.000000 1.000000
4120484157 2000 -1.255992 1.590351 -159.634811 0.000000 0.000000 0.000000 0.914634 0.000000 -0.243902 0.017578 -0.002930 1.023926 0.000000 0.000000 0.000000 1.000000 1.000000 1.000000 1.000000
4120486157 2000 -1.256452 1.589883 -159.634735 0.000000 0.000000 0.000000 0.792683 0.121951 0.000000 0.031250 -0.002930 1.020996 0.000000 0.000000 0.000000 1.000000 1.000000 1.000000 1.000000
4120488157 2000 -1.256622 1.588811 -159.635010 0.000000 0.000000 0.000000 0.670732 0.182927 -0.182927 0.030273 -0.006348 1.036621 0.000000 0.000000 0.000000 1.000000 1.000000 1.000000 1.000000
4120490157 2000 -1.255892 1.587932 -159.634674 0.000000 0.000000 0.000000 0.670732 0.182927 0.121951 0.021484 -0.004395 1.017090 0.000000 0.000000 0.000000 1.000000 1.000000 1.000000 1.000000
4120492157 2000 -1.255588 1.587381 -159.634979 0.000000 0.000000 0.000000 0.609756 0.121951 -0.182927 0.024902 -0.000488 1.040039 0.000000 0.000000 0.000000 1.000000 1.000000 1.000000 1.000000
