#時刻 刻み幅 roll pitch yaw gx gy gz ax ay az mx my mz
3490640215 2 0.263071 1.523156 174.018997 0.792683 0.121951 -0.243902 -0.005859 -0.003906 1.028809 0.000000 0.000000 0.000000
3490642215 2000 0.263196 1.523522 174.018387 0.975610 0.000000 -0.121951 -0.004883 -0.001953 1.029297 0.000000 0.000000 0.000000
3490644215 2000 0.263940 1.523781 174.017914 0.975610 0.121951 -0.060976 -0.008301 -0.002930 1.025879 0.000000 0.000000 0.000000
3490646215 2000 0.263083 1.524345 174.016678 0.914634 -0.121951 -0.426829 0.001953 0.000977 1.024902 0.000000 0.000000 0.000000
3490648215 2000 0.263898 1.525099 174.015961 1.036585 0.182927 -0.182927 -0.007812 0.000488 1.030273 0.000000 0.000000 0.000000
3490650215 2000 0.263545 1.525067 174.015091 0.670732 0.000000 -0.243902 -0.000488 0.000000 1.018066 0.000000 0.000000 0.000000
3490652215 2000 0.263106 1.524714 174.014481 0.670732 0.121951 -0.121951 0.002441 -0.002930 1.031738 0.000000 0.000000 0.000000
3490654215 2000 0.263058 1.524806 174.013870 0.731707 -0.060976 -0.121951 -0.004395 0.000000 1.023926 0.000000 0.000000 0.000000
3490656215 2000 0.262476 1.525018 174.013000 0.792683 -0.060976 -0.243902 0.000488 0.000000 1.018066 0.000000 0.000000 0.000000
3490658215 2000 0.261668 1.525148 174.012024 0.670732 -0.121951 -0.304878 0.001465 0.001465 1.024902 0.000000 0.000000 0.000000
3490660215 2000 0.262208 1.525264 174.010788 1.097561 0.060976 -0.426829 -0.007324 -0.006348 1.022461 0.000000 0.000000 0.000000
3490662215 2000 0.262378 1.525815 174.010193 1.097561 0.182927 -0.121951 -0.001953 -0.002441 1.027832 0.000000 0.000000 0.000000
3490664215 2000 0.261405 1.525406 174.009827 0.670732 -0.060976 0.000000 0.003906 -0.003418 1.021973 0.000000 0.000000 0.000000
3490666215 2000 0.261388 1.525596 174.009689 1.158537 0.121951 0.121951 -0.001465 -0.006836 1.024902 0.000000 0.000000 0.000000
3490668215 2000 0.262011 1.525731 174.009094 0.426829 0.243902 -0.121951 -0.004883 0.005859 1.014648 0.000000 0.000000 0.000000
3490670215 2000 0.261393 1.526536 174.008392 1.036585 0.243902 -0.182927 0.006348 0.000977 1.030762 0.000000 0.000000 0.000000
3490672215 2000 0.261771 1.525852 174.007401 0.426829 0.121951 -0.304878 -0.004883 -0.001465 1.036133 0.000000 0.000000 0.000000
3490674215 2000 0.261512 1.526726 174.006042 1.341463 -0.365854 -0.487805 -0.007812 -0.003906 1.026367 0.000000 0.000000 0.000000
3490676215 2000 0.262058 1.525216 174.005081 0.121951 0.365854 -0.304878 -0.001953 -0.003418 1.028809 0.000000 0.000000 0.000000
3490678215 2000 0.261499 1.527012 174.004456 1.585366 -0.182927 -0.121951 -0.001953 0.000000 1.023438 0.000000 0.000000 0.000000
3490680215 2000 0.261324 1.525126 174.003952 -0.121951 -0.121951 -0.060976 -0.004395 -0.002441 1.034180 0.000000 0.000000 0.000000
3490682215 2000 0.261580 1.526625 174.003098 1.463415 0.060976 -0.243902 -0.004883 -0.000488 1.029785 0.000000 0.000000 0.000000
3490684215 2000 0.261214 1.526716 174.001999 0.548781 0.121951 -0.365854 0.001953 0.003418 1.039551 0.000000 0.000000 0.000000
3490686215 2000 0.260756 1.526086 174.001160 0.182927 0.243902 -0.243902 0.004883 0.003418 1.019531 0.000000 0.000000 0.000000
3490688215 2000 0.260763 1.528301 174.000671 1.768293 -0.060976 -0.060976 -0.004883 0.000488 1.024414 0.000000 0.000000 0.000000
3490690215 2000 0.261069 1.527707 173.999695 0.365854 0.243902 -0.304878 -0.001953 0.000488 1.020020 0.000000 0.000000 0.000000
3490692215 2000 0.261512 1.528162 173.998978 1.158537 0.182927 -0.182927 -0.004395 -0.004395 1.031250 0.000000 0.000000 0.000000
3490694215 2000 0.260746 1.528966 173.997971 1.280488 -0.182927 -0.304878 0.000000 -0.003418 1.032715 0.000000 0.000000 0.000000
3490696215 2000 0.260989 1.528434 173.996887 0.914634 0.182927 -0.365854 -0.002441 -0.008789 1.015625 0.000000 0.000000 0.000000
3490698215 2000 0.260527 1.528750 173.996262 1.036585 0.000000 -0.121951 0.000488 -0.003418 1.026367 0.000000 0.000000 0.000000
3490700215 2000 0.260793 1.528079 173.995895 0.487805 -0.060976 0.000000 -0.007324 -0.002441 1.034668 0.000000 0.000000 0.000000
3490702215 2000 0.260601 1.530164 173.995560 1.463415 0.487805 0.000000 0.006836 0.004883 1.030273 0.000000 0.000000 0.000000
3490704225 2010 0.259895 1.528938 173.994812 0.243902 -0.121951 -0.182927 0.000488 -0.002930 1.021484 0.000000 0.000000 0.000000
3490706225 2000 0.260187 1.529928 173.993698 1.158537 -0.121951 -0.365854 -0.008301 0.000488 1.013184 0.000000 0.000000 0.000000
3490708225 2000 0.261479 1.529013 173.993240 0.609756 0.609756 -0.060976 -0.004395 -0.006836 1.028320 0.000000 0.000000 0.000000
3490710225 2000 0.261028 1.530192 173.992233 1.280488 -0.487805 -0.304878 -0.008301 0.000000 1.018555 0.000000 0.000000 0.000000
3490712225 2000 0.261427 1.529207 173.991501 -0.182927 -0.060976 -0.182927 -0.008301 0.006836 1.015625 0.000000 0.000000 0.000000
3490714225 2000 0.261401 1.530857 173.990753 1.463415 -0.182927 -0.182927 -0.006836 0.000977 1.039062 0.000000 0.000000 0.000000
3490716225 2000 0.262182 1.529165 173.990021 0.060976 0.243902 -0.182927 -0.006348 -0.003906 1.028809 0.000000 0.000000 0.000000
3490718225 2000 0.262443 1.531154 173.989059 1.524390 0.060976 -0.304878 -0.004883 0.002930 1.024414 0.000000 0.000000 0.000000
3490720225 2000 0.263267 1.530095 173.988464 0.243902 0.426829 -0.121951 -0.003418 -0.001465 1.011230 0.000000 0.000000 0.000000
3490722225 2000 0.263253 1.529853 173.987000 0.975610 0.000000 -0.548781 -0.003418 -0.007324 1.029785 0.000000 0.000000 0.000000
3490724225 2000 0.263713 1.530948 173.986511 1.158537 0.304878 -0.060976 -0.002441 0.001465 1.034668 0.000000 0.000000 0.000000
3490726225 2000 0.262792 1.532665 173.986130 1.280488 -0.304878 0.000000 -0.000977 0.004883 1.023926 0.000000 0.000000 0.000000
3490728225 2000 0.262691 1.532244 173.985748 0.670732 -0.243902 0.000000 -0.007324 -0.003418 1.030273 0.000000 0.000000 0.000000
3490730225 2000 0.261874 1.533471 173.985138 1.280488 -0.121951 -0.121951 0.001465 0.000488 1.024414 0.000000 0.000000 0.000000
3490732225 2000 0.262828 1.531944 173.984406 0.548781 0.304878 -0.182927 -0.006836 -0.011230 1.030762 0.000000 0.000000 0.000000
3490734225 2000 0.262804 1.530663 173.983795 0.426829 0.060976 -0.121951 -0.002441 -0.006836 1.035645 0.000000 0.000000 0.000000
3490736225 2000 0.264149 1.532166 173.982834 1.829268 0.487805 -0.304878 -0.006836 -0.006836 1.003418 0.000000 0.000000 0.000000
3490738225 2000 0.264620 1.532473 173.981522 0.548781 0.487805 -0.487805 0.000977 0.005371 1.017090 0.000000 0.000000 0.000000
3490740225 2000 0.264434 1.532508 173.980515 0.792683 -0.426829 -0.304878 -0.009766 -0.001465 1.031738 0.000000 0.000000 0.000000
3490742225 2000 0.264987 1.533384 173.979294 1.402439 -0.060976 -0.426829 -0.009766 -0.004883 1.030762 0.000000 0.000000 0.000000
3490744225 2000 0.265490 1.531728 173.978653 0.487805 -0.243902 -0.121951 -0.012695 -0.011230 1.022949 0.000000 0.000000 0.000000
3490746225 2000 0.266209 1.532007 173.978073 0.670732 0.487805 -0.121951 -0.001465 0.002930 1.025879 0.000000 0.000000 0.000000
3490748225 2000 0.266846 1.530980 173.977356 0.609756 0.365854 -0.182927 -0.002930 -0.007812 1.029785 0.000000 0.000000 0.000000
3490750225 2000 0.266862 1.532072 173.976135 1.158537 0.182927 -0.426829 -0.000488 0.001465 1.020020 0.000000 0.000000 0.000000
3490752225 2000 0.268315 1.531038 173.975403 0.365854 0.365854 -0.182927 -0.010254 -0.003418 1.020508 0.000000 0.000000 0.000000
3490754225 2000 0.266502 1.532119 173.974289 1.341463 -0.487805 -0.365854 0.003906 -0.001953 1.034668 0.000000 0.000000 0.000000
3490756225 2000 0.266585 1.531289 173.973923 0.304878 0.121951 0.000000 -0.002441 -0.000488 1.041504 0.000000 0.000000 0.000000
3490758225 2000 0.267100 1.530673 173.973190 0.304878 -0.121951 -0.182927 -0.010742 0.001465 1.036621 0.000000 0.000000 0.000000
3490760225 2000 0.268791 1.531684 173.972717 1.036585 0.548781 -0.060976 -0.009277 0.002930 1.031738 0.000000 0.000000 0.000000
3490762225 2000 0.269026 1.530555 173.972260 0.426829 0.548781 -0.060976 0.003906 -0.005371 1.017578 0.000000 0.000000 0.000000
3490764225 2000 0.269009 1.531056 173.971512 1.158537 -0.121951 -0.182927 -0.005859 -0.003906 1.024902 0.000000 0.000000 0.000000
3490766225 2000 0.268342 1.531153 173.971161 0.548781 0.182927 0.000000 0.005371 0.003418 1.013672 0.000000 0.000000 0.000000
3490768225 2000 0.270089 1.531273 173.971069 1.158537 0.548781 0.121951 -0.009766 -0.007324 1.017578 0.000000 0.000000 0.000000
3490770225 2000 0.270160 1.530498 173.970581 0.060976 0.060976 -0.060976 -0.003418 0.004395 1.023438 0.000000 0.000000 0.000000
3490772225 2000 0.270873 1.529826 173.970078 0.731707 0.060976 -0.060976 -0.009277 -0.006836 1.029297 0.000000 0.000000 0.000000
3490774225 2000 0.271389 1.530685 173.968872 0.853659 0.060976 -0.426829 -0.007324 0.004883 1.030273 0.000000 0.000000 0.000000
3490776225 2000 0.271011 1.530925 173.967880 1.463415 -0.060976 -0.304878 -0.001465 -0.011719 1.020996 0.000000 0.000000 0.000000
3490778225 2000 0.270840 1.530682 173.967773 0.487805 0.243902 0.121951 0.001953 0.001465 1.022461 0.000000 0.000000 0.000000
3490780225 2000 0.269543 1.529961 173.966629 1.219512 -0.548781 -0.365854 -0.001953 -0.016113 1.030273 0.000000 0.000000 0.000000
3490782225 2000 0.270284 1.528744 173.966034 0.000000 0.365854 -0.121951 -0.003906 0.001465 1.016113 0.000000 0.000000 0.000000
3490784225 2000 0.269816 1.528436 173.965256 1.219512 -0.487805 -0.182927 -0.008301 -0.012207 1.011230 0.000000 0.000000 0.000000
3490786225 2000 0.271654 1.527597 173.964081 0.487805 0.853659 -0.426829 -0.004883 -0.003906 1.020996 0.000000 0.000000 0.000000
3490788225 2000 0.271310 1.528107 173.963089 1.158537 -0.121951 -0.304878 -0.002930 -0.003906 1.038574 0.000000 0.000000 0.000000
3490790225 2000 0.270981 1.528462 173.961731 1.219512 -0.121951 -0.487805 -0.002930 -0.006348 1.025391 0.000000 0.000000 0.000000
3490792225 2000 0.269720 1.527449 173.961349 0.670732 -0.304878 0.000000 0.001953 -0.008789 1.020508 0.000000 0.000000 0.000000
3490794225 2000 0.269628 1.527873 173.960861 0.792683 0.060976 -0.060976 -0.001953 0.001953 1.027344 0.000000 0.000000 0.000000
3490796225 2000 0.269456 1.526349 173.960388 0.060976 0.182927 -0.060976 0.000977 -0.002441 1.023438 0.000000 0.000000 0.000000
3490798225 2000 0.268883 1.527301 173.959167 0.975610 0.243902 -0.426829 0.005859 0.003418 1.019043 0.000000 0.000000 0.000000
3490800225 2000 0.268009 1.526794 173.958679 0.731707 -0.060976 -0.060976 0.002930 -0.005371 1.022949 0.000000 0.000000 0.000000
3490802225 2000 0.267544 1.526774 173.957703 0.975610 0.243902 -0.304878 0.004883 -0.005371 1.026855 0.000000 0.000000 0.000000
3490804225 2000 0.265920 1.528255 173.956955 1.402439 -0.121951 -0.182927 0.008789 0.000488 1.036133 0.000000 0.000000 0.000000
3490806225 2000 0.265909 1.527256 173.956223 0.243902 -0.121951 -0.182927 -0.005859 -0.000977 1.024414 0.000000 0.000000 0.000000
3490808225 2000 0.265443 1.528064 173.955353 1.585366 0.000000 -0.243902 0.000488 -0.008789 1.011230 0.000000 0.000000 0.000000
3490810225 2000 0.265894 1.526119 173.954636 -0.121951 0.243902 -0.182927 -0.003418 -0.002930 1.025391 0.000000 0.000000 0.000000
3490812225 2000 0.266591 1.528318 173.953659 1.707317 0.121951 -0.304878 -0.007812 0.001465 1.026855 0.000000 0.000000 0.000000
3490814225 2000 0.267088 1.528737 173.953049 0.548781 0.000000 -0.121951 -0.008301 0.006348 1.027344 0.000000 0.000000 0.000000
3490816225 2000 0.266376 1.529945 173.953156 0.914634 -0.243902 0.243902 -0.001953 0.006836 1.024414 0.000000 0.000000 0.000000
3490818225 2000 0.266714 1.529947 173.952545 1.097561 0.000000 -0.121951 -0.006836 -0.007324 1.022949 0.000000 0.000000 0.000000
3490820225 2000 0.266426 1.529236 173.951553 0.792683 0.060976 -0.304878 0.000000 -0.008301 1.031250 0.000000 0.000000 0.000000
3490822225 2000 0.267201 1.529749 173.950363 0.975610 0.426829 -0.426829 -0.002930 -0.000488 1.020508 0.000000 0.000000 0.000000
3490824225 2000 0.266393 1.528798 173.949127 0.243902 -0.121951 -0.426829 0.001465 -0.000488 1.043457 0.000000 0.000000 0.000000
3490826225 2000 0.267779 1.529058 173.948151 1.036585 0.304878 -0.304878 -0.010742 -0.003906 1.025879 0.000000 0.000000 0.000000
3490828225 2000 0.268287 1.528870 173.948059 0.914634 0.365854 0.121951 -0.001953 -0.005859 1.042480 0.000000 0.000000 0.000000
3490830225 2000 0.267665 1.530323 173.946823 1.036585 -0.243902 -0.426829 -0.002441 0.006836 1.015625 0.000000 0.000000 0.000000
3490832225 2000 0.268793 1.529630 173.946350 0.182927 0.426829 -0.060976 -0.006348 0.002930 1.026855 0.000000 0.000000 0.000000
3490834225 2000 0.268193 1.530671 173.945251 1.402439 -0.121951 -0.365854 -0.000488 -0.003418 1.018066 0.000000 0.000000 0.000000
3490836225 2000 0.269135 1.530667 173.944519 0.609756 0.304878 -0.182927 -0.006836 0.001465 1.027832 0.000000 0.000000 0.000000
3490838225 2000 0.267292 1.530531 173.943649 0.731707 -0.365854 -0.243902 0.006348 -0.001953 1.037598 0.000000 0.000000 0.000000
3490840225 2000 0.267432 1.532207 173.942535 1.585366 -0.182927 -0.365854 -0.008301 -0.000977 1.030273 0.000000 0.000000 0.000000
3490842225 2000 0.268917 1.530686 173.942078 0.121951 0.792683 -0.060976 -0.002930 -0.003418 1.018555 0.000000 0.000000 0.000000
3490844225 2000 0.268326 1.530514 173.940964 1.036585 -0.304878 -0.365854 -0.003906 -0.007812 1.031250 0.000000 0.000000 0.000000
3490846225 2000 0.267413 1.529485 173.940445 0.365854 -0.487805 -0.060976 -0.004395 -0.003418 1.020996 0.000000 0.000000 0.000000
3490848225 2000 0.268393 1.529389 173.939621 0.670732 0.670732 -0.243902 -0.000488 -0.000488 1.027832 0.000000 0.000000 0.000000
3490850225 2000 0.268793 1.529143 173.938644 0.975610 0.243902 -0.304878 -0.002930 -0.007324 1.018066 0.000000 0.000000 0.000000
3490852225 2000 0.269196 1.529105 173.937653 0.914634 -0.182927 -0.304878 -0.010742 -0.004395 1.028809 0.000000 0.000000 0.000000
3490854225 2000 0.270505 1.527981 173.937317 0.609756 0.548781 0.000000 -0.005859 -0.008789 1.032715 0.000000 0.000000 0.000000
3490856225 2000 0.269282 1.528234 173.937042 1.219512 -0.365854 0.060976 0.000488 -0.007324 1.026367 0.000000 0.000000 0.000000
3490858225 2000 0.270252 1.527699 173.936096 0.365854 0.609756 -0.304878 -0.001465 0.000977 1.000000 0.000000 0.000000 0.000000
3490860225 2000 0.270242 1.529475 173.934982 1.524390 -0.121951 -0.365854 -0.005859 0.000977 1.025391 0.000000 0.000000 0.000000
3490862225 2000 0.269917 1.527662 173.934128 0.000000 0.182927 -0.243902 0.002441 -0.003906 1.024902 0.000000 0.000000 0.000000
3490864225 2000 0.270287 1.526222 173.933533 0.426829 0.182927 -0.121951 -0.003906 -0.008301 1.026855 0.000000 0.000000 0.000000
3490866225 2000 0.270928 1.526910 173.932922 0.975610 0.121951 -0.121951 -0.007324 0.000977 1.006348 0.000000 0.000000 0.000000
3490868225 2000 0.272379 1.526126 173.931473 0.670732 0.609756 -0.548781 -0.005859 -0.006836 1.041504 0.000000 0.000000 0.000000
3490870225 2000 0.272281 1.526904 173.930618 1.158537 0.000000 -0.243902 -0.002930 -0.001465 1.019043 0.000000 0.000000 0.000000
3490872225 2000 0.271927 1.526936 173.929626 0.975610 -0.182927 -0.304878 -0.003906 -0.004883 1.022461 0.000000 0.000000 0.000000
3490874225 2000 0.271757 1.528997 173.928406 2.073171 0.121951 -0.426829 0.000000 -0.006348 1.020020 0.000000 0.000000 0.000000
3490876225 2000 0.271721 1.527591 173.928391 -0.121951 -0.304878 0.182927 -0.009277 0.001953 1.031250 0.000000 0.000000 0.000000
3490878225 2000 0.271605 1.529637 173.927185 1.524390 0.365854 -0.426829 0.003906 0.003418 1.021973 0.000000 0.000000 0.000000
3490880225 2000 0.272238 1.529066 173.926193 0.243902 -0.121951 -0.304878 -0.011719 0.002930 1.024414 0.000000 0.000000 0.000000
3490882225 2000 0.272469 1.529530 173.925720 0.731707 0.060976 -0.060976 -0.004883 0.003418 1.019043 0.000000 0.000000 0.000000
3490884225 2000 0.272288 1.529831 173.925217 0.975610 -0.060976 -0.060976 -0.003418 -0.002441 1.031250 0.000000 0.000000 0.000000
3490886225 2000 0.271592 1.532169 173.923874 1.646342 -0.060976 -0.487805 0.001465 0.003906 1.024902 0.000000 0.000000 0.000000
3490888225 2000 0.271900 1.532068 173.923508 0.182927 0.182927 0.000000 -0.003418 0.008301 1.024414 0.000000 0.000000 0.000000
3490890225 2000 0.271679 1.534814 173.922775 2.012195 -0.060976 -0.182927 -0.002930 0.000977 1.011230 0.000000 0.000000 0.000000
3490892225 2000 0.272366 1.534344 173.921936 0.731707 0.365854 -0.243902 -0.003418 -0.004883 1.024414 0.000000 0.000000 0.000000
3490894225 2000 0.271887 1.534224 173.921066 0.609756 0.000000 -0.243902 0.000488 0.000488 1.032227 0.000000 0.000000 0.000000
3490896225 2000 0.271621 1.535814 173.920364 1.463415 0.243902 -0.182927 0.002930 0.000488 1.017090 0.000000 0.000000 0.000000
3490898225 2000 0.270070 1.535864 173.919235 0.426829 -0.243902 -0.365854 0.005859 0.005371 1.027344 0.000000 0.000000 0.000000
3490900225 2000 0.271199 1.535230 173.918533 0.487805 0.426829 -0.182927 -0.006348 -0.001953 1.027832 0.000000 0.000000 0.000000
3490902225 2000 0.270898 1.534248 173.917923 0.365854 0.304878 -0.121951 0.004395 -0.002930 1.036133 0.000000 0.000000 0.000000
3490904225 2000 0.271789 1.535888 173.916458 1.707317 0.000000 -0.548781 -0.011719 -0.003418 1.024902 0.000000 0.000000 0.000000
3490906225 2000 0.270952 1.537216 173.915344 1.280488 -0.182927 -0.365854 0.000488 0.001465 1.015625 0.000000 0.000000 0.000000
3490908225 2000 0.271605 1.535066 173.914612 0.000000 0.000000 -0.182927 -0.009766 -0.006836 1.027344 0.000000 0.000000 0.000000
3490910225 2000 0.271661 1.534541 173.913498 0.731707 0.182927 -0.365854 -0.000977 -0.005371 1.025391 0.000000 0.000000 0.000000
3490912225 2000 0.271478 1.533569 173.912781 0.182927 0.121951 -0.182927 0.000000 0.000488 1.032227 0.000000 0.000000 0.000000
3490914225 2000 0.272563 1.533914 173.912308 0.975610 0.487805 -0.060976 -0.004883 -0.001953 1.020508 0.000000 0.000000 0.000000
3490916225 2000 0.272276 1.531010 173.911942 -0.060976 0.182927 0.000000 0.001953 -0.012695 1.030762 0.000000 0.000000 0.000000
3490918225 2000 0.272218 1.533739 173.910965 1.951220 -0.060976 -0.304878 -0.004395 0.001953 1.027344 0.000000 0.000000 0.000000
3490920225 2000 0.272821 1.533096 173.910599 0.182927 0.060976 0.000000 -0.008301 0.003418 1.023926 0.000000 0.000000 0.000000
3490922225 2000 0.274175 1.535180 173.909622 1.524390 0.060976 -0.304878 -0.015137 0.003906 1.037598 0.000000 0.000000 0.000000
3490924225 2000 0.274321 1.533071 173.909012 0.609756 0.182927 -0.121951 -0.001953 -0.017578 1.028320 0.000000 0.000000 0.000000
3490926225 2000 0.274954 1.533128 173.907806 0.670732 0.365854 -0.426829 -0.002930 0.000977 1.033203 0.000000 0.000000 0.000000
3490928225 2000 0.274850 1.533258 173.907440 0.487805 0.060976 0.000000 -0.001953 0.004883 1.021484 0.000000 0.000000 0.000000
3490930225 2000 0.275375 1.534322 173.906815 1.280488 -0.060976 -0.121951 -0.009766 -0.000977 1.022461 0.000000 0.000000 0.000000
3490932225 2000 0.274843 1.534562 173.906082 0.548781 -0.182927 -0.182927 -0.002441 0.004883 1.034180 0.000000 0.000000 0.000000
3490934225 2000 0.273523 1.534037 173.905075 0.731707 -0.365854 -0.304878 0.001465 -0.005371 1.022461 0.000000 0.000000 0.000000
3490936225 2000 0.273840 1.534053 173.903748 0.731707 0.365854 -0.487805 0.000000 -0.000488 1.007812 0.000000 0.000000 0.000000
3490938225 2000 0.273920 1.534807 173.903290 0.670732 0.365854 -0.060976 0.001953 0.007324 1.034180 0.000000 0.000000 0.000000
3490940225 2000 0.273644 1.536135 173.902298 0.792683 -0.060976 -0.304878 -0.002441 0.010254 1.021973 0.000000 0.000000 0.000000
3490942225 2000 0.271846 1.535610 173.901688 0.731707 -0.060976 -0.121951 0.011230 -0.005371 1.025391 0.000000 0.000000 0.000000
3490944225 2000 0.271421 1.537518 173.900330 1.707317 -0.060976 -0.487805 -0.000977 -0.000977 1.037109 0.000000 0.000000 0.000000
3490946225 2000 0.271806 1.535024 173.899841 -0.548781 0.060976 -0.060976 -0.006348 0.000000 1.033203 0.000000 0.000000 0.000000
3490948225 2000 0.271587 1.536329 173.899460 1.646342 -0.243902 0.000000 -0.006348 -0.005371 1.020996 0.000000 0.000000 0.000000
3490950225 2000 0.271741 1.535607 173.898361 0.792683 0.365854 -0.365854 0.001465 -0.008301 1.034180 0.000000 0.000000 0.000000
3490952225 2000 0.271601 1.534812 173.897858 0.487805 -0.365854 -0.060976 -0.009277 -0.003418 1.026855 0.000000 0.000000 0.000000
3490954225 2000 0.272021 1.536217 173.897400 1.158537 0.426829 -0.060976 0.000000 0.004395 1.037109 0.000000 0.000000 0.000000
3490956225 2000 0.271975 1.536650 173.896057 1.158537 0.182927 -0.487805 0.000000 -0.004395 1.028320 0.000000 0.000000 0.000000
3490958225 2000 0.272559 1.536716 173.895065 0.975610 0.121951 -0.304878 -0.006836 -0.004395 1.019043 0.000000 0.000000 0.000000
3490960225 2000 0.272179 1.535913 173.894684 0.731707 -0.243902 0.000000 -0.004883 -0.007812 1.014160 0.000000 0.000000 0.000000
3490962225 2000 0.273091 1.536331 173.894089 1.280488 0.243902 -0.121951 -0.007812 -0.006836 1.036133 0.000000 0.000000 0.000000
3490964225 2000 0.271730 1.536067 173.893692 0.914634 -0.487805 0.000000 -0.000488 -0.006348 1.030273 0.000000 0.000000 0.000000
3490966225 2000 0.271726 1.537585 173.893555 1.402439 -0.182927 0.121951 -0.007324 0.000977 1.032227 0.000000 0.000000 0.000000
3490968225 2000 0.272837 1.539196 173.893097 1.341463 0.365854 -0.060976 -0.007324 0.002930 1.021484 0.000000 0.000000 0.000000
3490970225 2000 0.272691 1.539090 173.892593 0.487805 -0.121951 -0.060976 -0.004883 0.002930 1.038574 0.000000 0.000000 0.000000
3490972225 2000 0.273142 1.539738 173.892227 1.158537 0.121951 0.000000 -0.005859 -0.002441 1.027832 0.000000 0.000000 0.000000
3490974225 2000 0.273605 1.539024 173.891663 0.182927 0.609756 -0.121951 0.002930 0.002930 1.030762 0.000000 0.000000 0.000000
3490976225 2000 0.272893 1.542035 173.890305 1.829268 -0.121951 -0.487805 0.000488 0.006836 1.021973 0.000000 0.000000 0.000000
3490978225 2000 0.274276 1.541448 173.889206 0.304878 0.182927 -0.365854 -0.013184 0.001953 1.040527 0.000000 0.000000 0.000000
3490980225 2000 0.272770 1.541802 173.888214 0.853659 -0.243902 -0.304878 0.005371 0.000488 1.024902 0.000000 0.000000 0.000000
3490982225 2000 0.272544 1.541249 173.886978 0.670732 0.121951 -0.426829 0.000488 -0.004395 1.022949 0.000000 0.000000 0.000000
3490984225 2000 0.272756 1.540864 173.886246 0.670732 0.000000 -0.182927 -0.005859 -0.002930 1.037109 0.000000 0.000000 0.000000
3490986225 2000 0.273242 1.541547 173.885803 0.853659 0.487805 -0.060976 0.000488 0.003418 1.021973 0.000000 0.000000 0.000000
3490988225 2000 0.273426 1.543307 173.884552 1.585366 -0.182927 -0.426829 -0.008789 0.000000 1.031250 0.000000 0.000000 0.000000
3490990225 2000 0.273725 1.541345 173.883835 -0.060976 0.121951 -0.182927 -0.004395 -0.003906 1.026367 0.000000 0.000000 0.000000
3490992225 2000 0.272692 1.542114 173.882812 1.463415 -0.304878 -0.304878 0.000000 -0.006836 1.035156 0.000000 0.000000 0.000000
3490994225 2000 0.271994 1.541564 173.881592 0.670732 -0.060976 -0.426829 0.001465 -0.004395 1.035645 0.000000 0.000000 0.000000
3490996225 2000 0.270706 1.543197 173.880585 1.280488 -0.487805 -0.304878 -0.000977 0.004395 1.034180 0.000000 0.000000 0.000000
3490998225 2000 0.271455 1.542956 173.879990 0.853659 0.426829 -0.121951 -0.002930 -0.004883 1.024902 0.000000 0.000000 0.000000
3491000225 2000 0.269891 1.542520 173.878754 1.219512 -0.304878 -0.426829 0.004883 -0.013184 1.020996 0.000000 0.000000 0.000000
3491002225 2000 0.270055 1.541983 173.878525 0.487805 0.548781 0.060976 0.004395 -0.000977 1.000977 0.000000 0.000000 0.000000
3491004225 2000 0.269887 1.542080 173.877899 1.158537 -0.060976 -0.121951 -0.003418 -0.007324 1.019043 0.000000 0.000000 0.000000
3491006225 2000 0.270584 1.542987 173.876343 1.402439 0.548781 -0.609756 0.000000 -0.004395 1.026855 0.000000 0.000000 0.000000
3491008225 2000 0.270420 1.542502 173.875443 0.975610 -0.548781 -0.243902 -0.012207 -0.009277 1.022461 0.000000 0.000000 0.000000
3491010225 2000 0.270934 1.542708 173.875107 0.914634 0.365854 0.000000 -0.001953 -0.001953 1.018066 0.000000 0.000000 0.000000
3491012225 2000 0.270804 1.542184 173.874725 0.548781 -0.060976 0.000000 -0.003906 -0.001953 1.038086 0.000000 0.000000 0.000000
3491014225 2000 0.270527 1.541752 173.873993 0.731707 0.182927 -0.182927 0.001953 -0.004395 1.017090 0.000000 0.000000 0.000000
3491016225 2000 0.270531 1.541483 173.873474 1.158537 -0.426829 -0.060976 -0.011719 -0.010742 1.032227 0.000000 0.000000 0.000000
3491018225 2000 0.270622 1.542152 173.872772 1.280488 0.365854 -0.182927 0.001953 -0.004395 1.024902 0.000000 0.000000 0.000000
3491020225 2000 0.270219 1.542166 173.872269 0.548781 0.121951 -0.060976 0.001953 0.002930 1.030273 0.000000 0.000000 0.000000
3491022225 2000 0.270069 1.541768 173.871552 0.853659 0.243902 -0.182927 0.001953 -0.006348 1.032715 0.000000 0.000000 0.000000
3491024225 2000 0.269984 1.540044 173.871307 0.487805 0.121951 0.060976 -0.000977 -0.011719 1.025391 0.000000 0.000000 0.000000
3491026225 2000 0.270334 1.541256 173.870575 1.524390 0.060976 -0.182927 -0.005859 -0.003906 1.020020 0.000000 0.000000 0.000000
3491028225 2000 0.271259 1.540929 173.870224 0.243902 0.304878 0.000000 -0.006836 0.005371 1.032715 0.000000 0.000000 0.000000
3491030225 2000 0.271392 1.542998 173.868988 1.951220 0.060976 -0.426829 -0.003906 -0.003906 1.044434 0.000000 0.000000 0.000000
3491032225 2000 0.270731 1.541174 173.868652 0.243902 0.365854 0.000000 0.008789 -0.008301 1.041992 0.000000 0.000000 0.000000
3491034225 2000 0.271080 1.541478 173.867920 0.609756 0.060976 -0.182927 -0.005859 0.004395 1.017578 0.000000 0.000000 0.000000
3491036225 2000 0.272831 1.541740 173.867203 0.914634 0.548781 -0.182927 -0.009766 -0.001465 1.024902 0.000000 0.000000 0.000000
3491038225 2000 0.272790 1.542010 173.866226 1.219512 0.000000 -0.304878 -0.003418 -0.006836 1.018066 0.000000 0.000000 0.000000
3491040225 2000 0.272626 1.541875 173.865356 0.609756 -0.243902 -0.243902 -0.006836 0.000488 1.034668 0.000000 0.000000 0.000000
3491042225 2000 0.273673 1.542897 173.864288 0.914634 0.487805 -0.365854 -0.004395 0.005371 1.014160 0.000000 0.000000 0.000000
3491044225 2000 0.272011 1.543674 173.863647 1.280488 -0.426829 -0.121951 0.003418 -0.003418 1.034180 0.000000 0.000000 0.000000
3491046225 2000 0.272589 1.542874 173.862808 0.548781 0.365854 -0.243902 -0.002441 -0.004395 1.021484 0.000000 0.000000 0.000000
3491048225 2000 0.271211 1.540356 173.862030 0.304878 -0.609756 -0.182927 -0.002441 -0.015625 1.029785 0.000000 0.000000 0.000000
3491050225 2000 0.271319 1.542421 173.861542 1.707317 0.000000 -0.060976 -0.004883 0.000488 1.025879 0.000000 0.000000 0.000000
3491052225 2000 0.271711 1.540703 173.860565 0.060976 0.243902 -0.304878 -0.002930 -0.003906 1.025879 0.000000 0.000000 0.000000
3491054225 2000 0.270270 1.541578 173.859802 1.463415 -0.426829 -0.182927 0.001465 -0.005859 1.027344 0.000000 0.000000 0.000000
3491056225 2000 0.270126 1.539895 173.859192 0.426829 0.060976 -0.121951 -0.001465 -0.010254 1.026367 0.000000 0.000000 0.000000
3491058225 2000 0.269935 1.540432 173.858322 1.158537 0.060976 -0.243902 -0.000977 -0.003418 1.031250 0.000000 0.000000 0.000000
3491060225 2000 0.269244 1.539321 173.857956 -0.121951 -0.182927 0.000000 -0.000977 0.004883 1.034668 0.000000 0.000000 0.000000
3491062225 2000 0.268708 1.541697 173.856476 1.890244 -0.121951 -0.548781 -0.000977 0.000000 1.012695 0.000000 0.000000 0.000000
3491064225 2000 0.269726 1.538250 173.856140 0.060976 0.670732 0.000000 -0.000977 -0.019531 1.021484 0.000000 0.000000 0.000000
3491066225 2000 0.268556 1.538529 173.855759 1.158537 -0.182927 0.000000 0.003418 -0.005859 1.039551 0.000000 0.000000 0.000000
3491068225 2000 0.269385 1.539283 173.855286 0.914634 0.304878 -0.060976 -0.005859 0.002930 1.025879 0.000000 0.000000 0.000000
3491070225 2000 0.270967 1.539943 173.855179 1.219512 0.548781 0.121951 -0.008301 -0.003418 1.019043 0.000000 0.000000 0.000000
3491072225 2000 0.270472 1.537801 173.854218 0.243902 0.121951 -0.304878 0.002930 -0.011230 1.038574 0.000000 0.000000 0.000000
3491074225 2000 0.271141 1.536807 173.853729 0.609756 0.304878 -0.060976 -0.004395 -0.007324 1.014648 0.000000 0.000000 0.000000
3491076225 2000 0.270739 1.536942 173.853241 0.792683 0.121951 -0.060976 0.001953 -0.000488 1.034668 0.000000 0.000000 0.000000
3491078225 2000 0.270337 1.538930 173.852768 1.585366 0.121951 -0.060976 0.001953 0.001953 1.033203 0.000000 0.000000 0.000000
3491080225 2000 0.271630 1.536016 173.852036 -0.243902 0.426829 -0.182927 -0.007812 -0.009277 1.025391 0.000000 0.000000 0.000000
3491082225 2000 0.270762 1.537383 173.851532 1.219512 -0.487805 -0.060976 -0.004883 0.002930 1.026367 0.000000 0.000000 0.000000
3491084225 2000 0.271344 1.536454 173.850708 0.609756 0.609756 -0.243902 0.001953 -0.006836 1.033691 0.000000 0.000000 0.000000
3491086225 2000 0.269657 1.535972 173.850418 0.670732 -0.731707 0.060976 -0.001953 -0.003906 1.032715 0.000000 0.000000 0.000000
3491088225 2000 0.269694 1.535913 173.849197 1.158537 0.304878 -0.426829 0.001465 -0.008789 1.016602 0.000000 0.000000 0.000000
3491090225 2000 0.270073 1.536155 173.848221 0.548781 -0.060976 -0.304878 -0.008301 0.004883 1.025879 0.000000 0.000000 0.000000
3491092225 2000 0.270858 1.536240 173.848236 0.792683 0.182927 0.182927 -0.007812 -0.000977 1.026855 0.000000 0.000000 0.000000
3491094225 2000 0.270540 1.536484 173.847504 1.036585 0.243902 -0.182927 0.003418 -0.003906 1.019531 0.000000 0.000000 0.000000
3491096225 2000 0.270650 1.535429 173.846390 0.548781 -0.304878 -0.365854 -0.010254 -0.006836 1.025879 0.000000 0.000000 0.000000
3491098225 2000 0.271072 1.537781 173.846024 1.524390 0.000000 0.000000 -0.007812 0.006348 1.034668 0.000000 0.000000 0.000000
3491100225 2000 0.271945 1.540025 173.845276 1.341463 0.060976 -0.182927 -0.010742 0.008789 1.034180 0.000000 0.000000 0.000000
3491102225 2000 0.270698 1.539478 173.844681 0.426829 0.000000 -0.121951 0.007324 0.000000 1.016113 0.000000 0.000000 0.000000
3491104225 2000 0.270179 1.539107 173.843933 0.731707 -0.182927 -0.182927 -0.002441 -0.003906 1.022461 0.000000 0.000000 0.000000
3491106225 2000 0.273009 1.538941 173.843597 0.670732 0.792683 0.000000 -0.015137 -0.000977 1.020996 0.000000 0.000000 0.000000
3491108225 2000 0.274366 1.537489 173.843018 0.000000 0.487805 -0.121951 -0.007324 -0.000488 1.017090 0.000000 0.000000 0.000000
3491110225 2000 0.273566 1.536800 173.842255 0.731707 -0.426829 -0.182927 -0.004395 -0.006836 1.027832 0.000000 0.000000 0.000000
3491112225 2000 0.274443 1.535844 173.841400 0.487805 0.304878 -0.243902 -0.006348 -0.004883 1.034668 0.000000 0.000000 0.000000
3491114225 2000 0.273890 1.536139 173.840424 0.792683 -0.304878 -0.304878 -0.004395 0.000977 1.035156 0.000000 0.000000 0.000000
3491116225 2000 0.273240 1.536382 173.839661 0.792683 -0.243902 -0.182927 -0.002441 0.000488 1.030762 0.000000 0.000000 0.000000
3491118225 2000 0.273280 1.537139 173.838562 1.158537 0.121951 -0.365854 -0.001953 -0.001465 1.023438 0.000000 0.000000 0.000000
3491120225 2000 0.273944 1.536852 173.838089 0.853659 0.304878 -0.060976 -0.004395 -0.005371 1.014160 0.000000 0.000000 0.000000
3491122225 2000 0.272998 1.536711 173.837204 0.975610 -0.365854 -0.243902 -0.001953 -0.006348 1.038086 0.000000 0.000000 0.000000
3491124225 2000 0.274407 1.537096 173.836990 1.158537 0.548781 0.060976 -0.006836 -0.004883 1.028320 0.000000 0.000000 0.000000
3491126225 2000 0.273634 1.535056 173.836380 0.243902 -0.060976 -0.121951 0.001953 -0.010254 1.025879 0.000000 0.000000 0.000000
3491128225 2000 0.273929 1.535076 173.835754 0.975610 0.121951 -0.121951 -0.004395 -0.004883 1.028320 0.000000 0.000000 0.000000
3491130225 2000 0.274371 1.534162 173.835159 0.426829 0.304878 -0.121951 -0.002441 -0.003418 1.033691 0.000000 0.000000 0.000000
3491132225 2000 0.274853 1.534065 173.834167 1.341463 0.000000 -0.304878 -0.008301 -0.012695 1.038086 0.000000 0.000000 0.000000
3491134225 2000 0.272951 1.533773 173.833649 0.548781 -0.731707 -0.060976 0.000000 0.000000 1.020020 0.000000 0.000000 0.000000
3491136225 2000 0.275583 1.531639 173.832947 0.304878 0.853659 -0.182927 -0.012207 -0.012207 1.020508 0.000000 0.000000 0.000000
3491138225 2000 0.275426 1.530918 173.832947 0.304878 0.121951 0.182927 -0.000488 0.000488 1.036621 0.000000 0.000000 0.000000
3491140225 2000 0.275465 1.532137 173.831604 1.463415 0.121951 -0.487805 -0.001953 -0.002930 1.041992 0.000000 0.000000 0.000000
3491142225 2000 0.273611 1.531173 173.830734 0.182927 -0.243902 -0.243902 0.008301 0.000488 1.004395 0.000000 0.000000 0.000000
3491144225 2000 0.272843 1.531790 173.829865 1.768293 -0.060976 -0.243902 0.001953 -0.013672 1.009277 0.000000 0.000000 0.000000
3491146225 2000 0.273205 1.530440 173.829254 0.365854 0.182927 -0.121951 -0.003906 -0.006348 1.033203 0.000000 0.000000 0.000000
3491148225 2000 0.272845 1.530565 173.828644 0.670732 -0.182927 -0.121951 -0.003906 0.001465 1.007812 0.000000 0.000000 0.000000
3491150225 2000 0.272532 1.530954 173.827652 0.914634 0.000000 -0.304878 -0.000977 -0.000488 1.014160 0.000000 0.000000 0.000000
3491152225 2000 0.271381 1.530992 173.826797 0.792683 0.121951 -0.243902 0.008789 -0.001465 1.027344 0.000000 0.000000 0.000000
3491154225 2000 0.271742 1.530146 173.826309 0.914634 -0.060976 -0.060976 -0.008301 -0.011719 1.027832 0.000000 0.000000 0.000000
3491156225 2000 0.271811 1.531190 173.825317 0.670732 0.000000 -0.304878 -0.004395 0.009766 1.018555 0.000000 0.000000 0.000000
3491158225 2000 0.271549 1.530398 173.823990 0.731707 0.182927 -0.487805 0.001953 -0.007812 1.019531 0.000000 0.000000 0.000000
3491160225 2000 0.271700 1.530125 173.822876 0.853659 -0.121951 -0.365854 -0.007324 -0.005371 1.023438 0.000000 0.000000 0.000000
3491162225 2000 0.271812 1.529777 173.822144 0.975610 0.000000 -0.182927 -0.004883 -0.008301 1.027832 0.000000 0.000000 0.000000
3491164225 2000 0.271914 1.528778 173.821136 0.487805 -0.060976 -0.304878 -0.005859 -0.005371 1.030762 0.000000 0.000000 0.000000
3491166225 2000 0.272206 1.528397 173.819916 0.853659 0.000000 -0.426829 -0.006348 -0.006348 1.019043 0.000000 0.000000 0.000000
3491168225 2000 0.272417 1.527973 173.819427 0.853659 0.000000 -0.060976 -0.005859 -0.006836 1.029297 0.000000 0.000000 0.000000
3491170225 2000 0.272554 1.528578 173.818695 0.670732 0.121951 -0.182927 -0.002930 0.005859 1.032227 0.000000 0.000000 0.000000
3491172225 2000 0.272767 1.528556 173.817734 0.975610 0.182927 -0.304878 -0.002441 -0.005371 1.029297 0.000000 0.000000 0.000000
3491174225 2000 0.272858 1.528277 173.817093 0.792683 -0.060976 -0.121951 -0.005859 -0.004395 1.029297 0.000000 0.000000 0.000000
3491176225 2000 0.273049 1.528755 173.816376 1.036585 0.121951 -0.182927 -0.003418 -0.001953 1.027832 0.000000 0.000000 0.000000
3491178225 2000 0.272634 1.529849 173.815781 0.914634 0.304878 -0.121951 0.005371 0.005859 1.029297 0.000000 0.000000 0.000000
3491180225 2000 0.272878 1.529633 173.814194 1.097561 0.243902 -0.609756 -0.001465 -0.009277 1.027344 0.000000 0.000000 0.000000
3491182225 2000 0.272993 1.530324 173.812958 0.792683 -0.060976 -0.426829 -0.005859 0.004395 1.016113 0.000000 0.000000 0.000000
3491184225 2000 0.273319 1.530700 173.811874 1.097561 0.182927 -0.365854 -0.003418 -0.003906 1.019531 0.000000 0.000000 0.000000
3491186225 2000 0.273288 1.530887 173.810913 0.731707 0.304878 -0.304878 0.001953 0.000977 1.020020 0.000000 0.000000 0.000000
3491188225 2000 0.273246 1.531335 173.810898 0.670732 -0.121951 0.182927 -0.005859 0.004395 1.020020 0.000000 0.000000 0.000000
3491190225 2000 0.273755 1.531901 173.810303 0.975610 0.121951 -0.121951 -0.006348 0.000000 1.029785 0.000000 0.000000 0.000000
3491192225 2000 0.274439 1.532987 173.809692 0.914634 0.182927 -0.121951 -0.006836 0.005859 1.030762 0.000000 0.000000 0.000000
3491194225 2000 0.274389 1.533021 173.808838 0.792683 0.000000 -0.243902 -0.003418 -0.001465 1.021484 0.000000 0.000000 0.000000
3491196225 2000 0.274112 1.532880 173.807983 0.731707 0.182927 -0.243902 0.001953 -0.001953 1.036621 0.000000 0.000000 0.000000
3491198225 2000 0.274245 1.533617 173.807266 1.036585 0.121951 -0.182927 -0.002930 0.000488 1.035156 0.000000 0.000000 0.000000
3491200225 2000 0.273518 1.533546 173.807007 0.792683 -0.060976 0.060976 0.001465 -0.002441 1.037598 0.000000 0.000000 0.000000
3491202225 2000 0.271896 1.533202 173.806015 0.792683 -0.060976 -0.304878 0.009766 -0.004883 1.029297 0.000000 0.000000 0.000000
3491204225 2000 0.271814 1.532998 173.805527 0.914634 0.121951 -0.060976 -0.000977 -0.005859 1.030762 0.000000 0.000000 0.000000
3491206225 2000 0.271914 1.533274 173.804184 0.914634 0.121951 -0.487805 -0.002441 -0.001465 1.036621 0.000000 0.000000 0.000000
3491208225 2000 0.272787 1.532019 173.802979 0.853659 0.182927 -0.426829 -0.008301 -0.014160 1.020996 0.000000 0.000000 0.000000
3491210225 2000 0.272473 1.531783 173.801987 0.548781 0.000000 -0.304878 -0.000977 0.000488 1.020996 0.000000 0.000000 0.000000
3491212225 2000 0.273176 1.531773 173.800888 1.036585 0.000000 -0.365854 -0.010254 -0.006348 1.037109 0.000000 0.000000 0.000000
3491214225 2000 0.272147 1.532380 173.800262 0.914634 -0.243902 -0.121951 0.000977 0.001465 1.016602 0.000000 0.000000 0.000000
3491216225 2000 0.271862 1.531785 173.800262 0.609756 0.000000 0.182927 -0.001465 -0.003906 1.029297 0.000000 0.000000 0.000000
3491218225 2000 0.271003 1.531943 173.799393 0.853659 0.000000 -0.243902 0.003906 -0.001465 1.018066 0.000000 0.000000 0.000000
3491220225 2000 0.270123 1.531547 173.798538 0.792683 0.121951 -0.243902 0.006348 -0.005371 1.025391 0.000000 0.000000 0.000000
3491222225 2000 0.270289 1.531124 173.798050 0.670732 0.243902 -0.060976 -0.000977 -0.003418 1.019531 0.000000 0.000000 0.000000
3491224225 2000 0.270360 1.531556 173.797577 1.097561 0.304878 -0.060976 0.000977 -0.003418 1.021973 0.000000 0.000000 0.000000
3491226225 2000 0.270497 1.531364 173.796967 0.731707 -0.121951 -0.121951 -0.007324 -0.002441 1.027832 0.000000 0.000000 0.000000
3491228225 2000 0.271105 1.531932 173.796616 0.975610 0.304878 0.000000 -0.003906 0.000000 1.020508 0.000000 0.000000 0.000000
3491230225 2000 0.271470 1.531845 173.795639 0.731707 0.121951 -0.304878 -0.004883 -0.001465 1.025879 0.000000 0.000000 0.000000
3491232225 2000 0.271820 1.532024 173.794907 0.487805 -0.121951 -0.182927 -0.009277 0.005371 1.031250 0.000000 0.000000 0.000000
3491234225 2000 0.271988 1.532642 173.794174 0.975610 0.243902 -0.182927 -0.000977 0.000488 1.023438 0.000000 0.000000 0.000000
3491236225 2000 0.271371 1.532411 173.793427 0.792683 -0.121951 -0.182927 -0.000488 -0.003906 1.037109 0.000000 0.000000 0.000000
3491238225 2000 0.270894 1.531975 173.792572 0.853659 0.000000 -0.243902 0.000488 -0.006836 1.025879 0.000000 0.000000 0.000000
3491240225 2000 0.271344 1.533184 173.791855 1.219512 0.304878 -0.182927 -0.002441 0.001465 1.039551 0.000000 0.000000 0.000000
3491242225 2000 0.270646 1.532267 173.790619 0.670732 0.182927 -0.426829 0.005859 -0.007812 1.020996 0.000000 0.000000 0.000000
3491244225 2000 0.270508 1.531522 173.789886 0.731707 0.060976 -0.182927 -0.001465 -0.007324 1.008301 0.000000 0.000000 0.000000
3491246225 2000 0.272473 1.532249 173.789658 0.975610 0.182927 0.060976 -0.018555 0.001465 1.032227 0.000000 0.000000 0.000000
3491248225 2000 0.271963 1.532676 173.789047 0.853659 0.121951 -0.121951 0.002930 0.000977 1.030762 0.000000 0.000000 0.000000
3491250225 2000 0.271925 1.532059 173.788177 0.548781 -0.243902 -0.243902 -0.007812 -0.002930 1.013672 0.000000 0.000000 0.000000
3491252225 2000 0.272518 1.532515 173.787567 0.975610 0.000000 -0.121951 -0.009277 -0.000977 1.027832 0.000000 0.000000 0.000000
3491254225 2000 0.272858 1.532521 173.786469 0.914634 0.243902 -0.365854 -0.002441 -0.003906 1.019043 0.000000 0.000000 0.000000
3491256225 2000 0.273164 1.532095 173.785614 0.670732 0.121951 -0.243902 -0.004395 -0.003418 1.020508 0.000000 0.000000 0.000000
3491258225 2000 0.273059 1.533232 173.784271 0.914634 -0.060976 -0.487805 -0.003906 0.006348 1.029297 0.000000 0.000000 0.000000
3491260225 2000 0.273207 1.532366 173.783295 0.914634 0.121951 -0.304878 -0.002930 -0.011719 1.016602 0.000000 0.000000 0.000000
3491262225 2000 0.273639 1.533053 173.783188 1.036585 0.304878 0.121951 -0.002441 0.000000 1.030273 0.000000 0.000000 0.000000
3491264225 2000 0.272677 1.532925 173.782196 0.792683 0.000000 -0.304878 0.004883 -0.002930 1.029297 0.000000 0.000000 0.000000
3491266225 2000 0.271884 1.532928 173.780838 0.914634 0.000000 -0.487805 0.003418 -0.003906 1.018066 0.000000 0.000000 0.000000
3491268225 2000 0.271295 1.531482 173.779617 0.670732 -0.060976 -0.426829 0.000488 -0.012695 1.029785 0.000000 0.000000 0.000000
3491270225 2000 0.271160 1.531856 173.778625 0.853659 0.060976 -0.304878 -0.001465 0.000488 1.022949 0.000000 0.000000 0.000000
3491272225 2000 0.271807 1.532420 173.777786 1.219512 0.182927 -0.243902 -0.006348 -0.004395 1.021484 0.000000 0.000000 0.000000
3491274225 2000 0.272224 1.532565 173.777451 0.792683 0.426829 0.000000 0.000000 -0.000488 1.036133 0.000000 0.000000 0.000000
3491276225 2000 0.272916 1.532694 173.777084 0.731707 0.243902 0.000000 -0.005859 0.000488 1.033203 0.000000 0.000000 0.000000
3491278225 2000 0.271826 1.532372 173.776825 0.853659 -0.243902 0.060976 0.001465 -0.005859 1.033691 0.000000 0.000000 0.000000
3491280225 2000 0.272136 1.532164 173.775848 0.914634 0.121951 -0.304878 -0.004395 -0.005859 1.023926 0.000000 0.000000 0.000000
3491282225 2000 0.271809 1.532687 173.775360 0.792683 0.000000 -0.060976 -0.000977 0.002930 1.024414 0.000000 0.000000 0.000000
3491284225 2000 0.271434 1.532503 173.774734 0.792683 0.000000 -0.121951 -0.000488 -0.003418 1.012207 0.000000 0.000000 0.000000
3491286225 2000 0.270440 1.532703 173.774475 0.792683 -0.304878 0.060976 -0.000488 0.000000 1.021484 0.000000 0.000000 0.000000
3491288225 2000 0.270358 1.531086 173.774109 0.670732 0.121951 0.000000 -0.000977 -0.014160 1.019531 0.000000 0.000000 0.000000
3491290225 2000 0.270811 1.530855 173.773392 0.792683 0.060976 -0.182927 -0.006836 -0.003906 1.026855 0.000000 0.000000 0.000000
3491292225 2000 0.270213 1.531052 173.772018 0.792683 -0.121951 -0.487805 -0.000488 0.000000 1.020508 0.000000 0.000000 0.000000
3491294225 2000 0.270607 1.531011 173.771530 0.914634 0.060976 -0.060976 -0.006348 -0.004395 1.023438 0.000000 0.000000 0.000000
3491296225 2000 0.271206 1.531523 173.770813 0.975610 0.243902 -0.182927 -0.004883 -0.000488 1.032227 0.000000 0.000000 0.000000
3491298225 2000 0.271125 1.530803 173.769836 0.792683 0.060976 -0.304878 -0.001953 -0.008301 1.024902 0.000000 0.000000 0.000000
3491300225 2000 0.270871 1.531380 173.769577 0.792683 -0.121951 0.060976 -0.003906 0.003418 1.033203 0.000000 0.000000 0.000000
3491302225 2000 0.271264 1.531541 173.769104 0.853659 0.060976 -0.060976 -0.006348 -0.001465 1.024902 0.000000 0.000000 0.000000
3491304225 2000 0.270932 1.531173 173.768341 0.914634 -0.060976 -0.182927 -0.001953 -0.007324 1.023926 0.000000 0.000000 0.000000
3491306225 2000 0.270812 1.530700 173.767853 0.914634 -0.060976 -0.060976 -0.003906 -0.008301 1.023926 0.000000 0.000000 0.000000
3491308225 2000 0.271151 1.531240 173.767731 0.853659 0.121951 0.121951 -0.004883 0.001953 1.030762 0.000000 0.000000 0.000000
3491310225 2000 0.271030 1.530786 173.767120 0.975610 -0.060976 -0.121951 -0.003906 -0.009277 1.031250 0.000000 0.000000 0.000000
3491312225 2000 0.270618 1.530799 173.766373 0.914634 0.060976 -0.182927 0.000977 -0.003906 1.027344 0.000000 0.000000 0.000000
3491314225 2000 0.271610 1.530699 173.765045 0.670732 0.243902 -0.487805 -0.008301 -0.000488 1.031738 0.000000 0.000000 0.000000
3491316225 2000 0.270657 1.531737 173.764313 0.914634 0.060976 -0.182927 0.005859 0.005371 1.023926 0.000000 0.000000 0.000000
3491318225 2000 0.270646 1.530304 173.763199 0.731707 -0.121951 -0.365854 -0.005859 -0.013672 1.026855 0.000000 0.000000 0.000000
3491320225 2000 0.270690 1.530130 173.762100 1.036585 0.121951 -0.365854 -0.001953 -0.007812 1.028809 0.000000 0.000000 0.000000
3491322225 2000 0.271009 1.529534 173.761368 0.609756 0.182927 -0.182927 -0.003418 -0.003906 1.023438 0.000000 0.000000 0.000000
3491324225 2000 0.270747 1.529968 173.760620 0.853659 0.000000 -0.182927 -0.001465 0.000977 1.021484 0.000000 0.000000 0.000000
3491326225 2000 0.269622 1.529621 173.759644 0.731707 -0.060976 -0.304878 0.005371 -0.003906 1.041504 0.000000 0.000000 0.000000
3491328225 2000 0.270001 1.529432 173.758804 0.975610 0.182927 -0.243902 -0.003906 -0.006836 1.023438 0.000000 0.000000 0.000000
3491330225 2000 0.270375 1.529813 173.757935 1.097561 -0.060976 -0.243902 -0.008301 -0.003906 1.026855 0.000000 0.000000 0.000000
3491332225 2000 0.270423 1.530257 173.756714 0.914634 0.121951 -0.426829 -0.001953 0.000000 1.030273 0.000000 0.000000 0.000000
3491334291 2066 0.270240 1.530093 173.756195 0.853659 -0.060976 -0.060976 -0.003418 -0.004395 1.031738 0.000000 0.000000 0.000000
3491336291 2000 0.270445 1.529428 173.755096 0.975610 0.121951 -0.365854 -0.003418 -0.011230 1.034180 0.000000 0.000000 0.000000
3491338291 2000 0.270752 1.529279 173.754120 0.670732 0.121951 -0.304878 -0.004395 -0.000977 1.033203 0.000000 0.000000 0.000000
3491340291 2000 0.270879 1.529980 173.753387 0.853659 0.060976 -0.182927 -0.003906 0.003418 1.030762 0.000000 0.000000 0.000000
3491342291 2000 0.271238 1.530710 173.752670 1.219512 0.121951 -0.182927 -0.004883 -0.002930 1.023926 0.000000 0.000000 0.000000
3491344291 2000 0.271191 1.530817 173.751923 0.853659 0.000000 -0.182927 -0.003418 -0.001953 1.023926 0.000000 0.000000 0.000000
3491346291 2000 0.270453 1.529968 173.751175 0.670732 -0.182927 -0.182927 -0.000488 -0.007324 1.030273 0.000000 0.000000 0.000000
3491348291 2000 0.270468 1.529310 173.750687 0.792683 0.060976 -0.060976 -0.002930 -0.007812 1.027832 0.000000 0.000000 0.000000
3491350291 2000 0.269955 1.529081 173.749680 0.792683 -0.182927 -0.304878 -0.002441 -0.003906 1.024902 0.000000 0.000000 0.000000
3491352291 2000 0.271114 1.529772 173.748962 0.792683 0.060976 -0.182927 -0.013184 0.004395 1.022949 0.000000 0.000000 0.000000
3491354291 2000 0.270720 1.530095 173.748108 0.853659 0.121951 -0.243902 0.001953 0.000000 1.029785 0.000000 0.000000 0.000000
3491356291 2000 0.270435 1.529678 173.747116 0.914634 -0.121951 -0.304878 -0.003418 -0.007812 1.027344 0.000000 0.000000 0.000000
3491358291 2000 0.270744 1.529490 173.746277 0.731707 0.121951 -0.243902 -0.004395 -0.002441 1.026367 0.000000 0.000000 0.000000
3491360291 2000 0.270734 1.529988 173.745163 0.914634 0.121951 -0.365854 -0.001465 0.000488 1.028320 0.000000 0.000000 0.000000
3491362291 2000 0.270465 1.529258 173.744934 0.670732 0.243902 0.060976 0.002930 -0.006348 1.043945 0.000000 0.000000 0.000000
3491364291 2000 0.270878 1.529317 173.744583 0.853659 0.182927 0.000000 -0.004395 -0.002441 1.033203 0.000000 0.000000 0.000000
3491366291 2000 0.271063 1.529955 173.743835 0.792683 0.060976 -0.182927 -0.004395 0.003906 1.020508 0.000000 0.000000 0.000000
3491368291 2000 0.270249 1.530445 173.742126 0.670732 0.060976 -0.670732 0.004883 0.004883 1.031250 0.000000 0.000000 0.000000
3491370291 2000 0.270615 1.530619 173.741150 0.914634 -0.121951 -0.304878 -0.009277 -0.002441 1.023926 0.000000 0.000000 0.000000
3491372291 2000 0.270608 1.531297 173.740051 0.731707 0.121951 -0.365854 -0.001465 0.005371 1.014160 0.000000 0.000000 0.000000
3491374291 2000 0.270728 1.531984 173.739212 1.036585 0.243902 -0.243902 -0.000488 0.000000 1.019043 0.000000 0.000000 0.000000
3491376291 2000 0.270594 1.531831 173.738220 0.914634 0.060976 -0.304878 -0.001465 -0.005371 1.024902 0.000000 0.000000 0.000000
3491378291 2000 0.271181 1.531945 173.737381 0.670732 0.182927 -0.243902 -0.005859 0.001465 1.032227 0.000000 0.000000 0.000000
3491380291 2000 0.272049 1.531647 173.736877 0.731707 -0.182927 -0.060976 -0.015137 -0.003418 1.030762 0.000000 0.000000 0.000000
3491382291 2000 0.272512 1.530889 173.736023 0.609756 0.121951 -0.243902 -0.005859 -0.005371 1.031250 0.000000 0.000000 0.000000
3491384291 2000 0.273088 1.531502 173.734924 0.731707 0.121951 -0.365854 -0.006836 0.004883 1.031738 0.000000 0.000000 0.000000
3491386291 2000 0.271968 1.531662 173.734070 0.853659 0.000000 -0.243902 0.006348 -0.001465 1.036621 0.000000 0.000000 0.000000
3491388291 2000 0.272676 1.532952 173.733231 1.097561 0.243902 -0.243902 -0.005859 0.004395 1.030273 0.000000 0.000000 0.000000
3491390291 2000 0.272000 1.533702 173.732101 1.097561 -0.182927 -0.365854 -0.000977 -0.000488 1.019043 0.000000 0.000000 0.000000
3491392291 2000 0.271359 1.533872 173.730896 1.158537 0.182927 -0.426829 0.005371 -0.006836 1.026855 0.000000 0.000000 0.000000
3491394291 2000 0.271564 1.534010 173.729797 0.792683 0.121951 -0.365854 -0.003418 -0.000488 1.024902 0.000000 0.000000 0.000000
3491396291 2000 0.270843 1.534042 173.728928 0.792683 -0.121951 -0.243902 0.000488 -0.001465 1.018555 0.000000 0.000000 0.000000
3491398291 2000 0.270264 1.534570 173.727936 0.853659 0.000000 -0.304878 0.001465 0.001953 1.034180 0.000000 0.000000 0.000000
3491400291 2000 0.271057 1.534561 173.727097 0.853659 0.121951 -0.243902 -0.008789 -0.002930 1.027832 0.000000 0.000000 0.000000
3491402291 2000 0.271333 1.535538 173.725983 1.158537 -0.060976 -0.365854 -0.007324 0.000488 1.020996 0.000000 0.000000 0.000000
3491404291 2000 0.270992 1.535743 173.725143 0.853659 0.121951 -0.243902 0.001465 -0.000977 1.029785 0.000000 0.000000 0.000000
3491406291 2000 0.270761 1.535663 173.724289 0.792683 0.365854 -0.243902 0.004883 -0.002441 1.025391 0.000000 0.000000 0.000000
3491408291 2000 0.269807 1.535043 173.723190 0.792683 0.000000 -0.365854 0.004883 -0.007324 1.025391 0.000000 0.000000 0.000000
3491410291 2000 0.269318 1.535184 173.722931 1.036585 -0.243902 0.060976 -0.003906 -0.004883 1.021484 0.000000 0.000000 0.000000
3491412291 2000 0.268533 1.535619 173.722046 0.914634 -0.426829 -0.243902 -0.004395 0.000000 1.023926 0.000000 0.000000 0.000000
3491414291 2000 0.268281 1.536187 173.721558 0.792683 0.060976 -0.060976 -0.000488 0.003418 1.029297 0.000000 0.000000 0.000000
3491416291 2000 0.268895 1.536268 173.720581 0.792683 0.060976 -0.304878 -0.008301 -0.000977 1.039551 0.000000 0.000000 0.000000
3491418291 2000 0.268455 1.536740 173.719604 0.853659 0.121951 -0.304878 0.002441 0.001465 1.028809 0.000000 0.000000 0.000000
3491420291 2000 0.268843 1.535822 173.718994 0.914634 0.000000 -0.121951 -0.007324 -0.012207 1.023438 0.000000 0.000000 0.000000
3491422291 2000 0.268169 1.535515 173.718613 0.731707 -0.121951 0.000000 0.000000 -0.003418 1.027832 0.000000 0.000000 0.000000
3491424347 2056 0.268426 1.534894 173.718109 0.853659 0.121951 -0.060976 -0.003906 -0.008301 1.023438 0.000000 0.000000 0.000000
3491426347 2000 0.267891 1.534992 173.717621 0.853659 0.000000 -0.060976 0.000977 -0.001953 1.011719 0.000000 0.000000 0.000000
3491428347 2000 0.267085 1.534221 173.717010 0.792683 0.182927 -0.121951 0.006836 -0.008789 1.034180 0.000000 0.000000 0.000000
3491430347 2000 0.267072 1.534506 173.715790 0.731707 0.060976 -0.426829 -0.002441 0.001953 1.025879 0.000000 0.000000 0.000000
3491432347 2000 0.267086 1.533778 173.715179 0.792683 0.000000 -0.121951 -0.003906 -0.008301 1.019043 0.000000 0.000000 0.000000
3491434347 2000 0.267164 1.533474 173.714569 0.731707 0.060976 -0.121951 -0.003418 -0.003418 1.026367 0.000000 0.000000 0.000000
3491436347 2000 0.265485 1.533307 173.713684 0.853659 -0.121951 -0.243902 0.009277 -0.004395 1.029785 0.000000 0.000000 0.000000
3491438347 2000 0.264977 1.532882 173.712952 0.914634 0.060976 -0.182927 0.001953 -0.007812 1.024414 0.000000 0.000000 0.000000
3491440347 2000 0.264315 1.532575 173.711853 0.975610 0.060976 -0.365854 0.003418 -0.007812 1.019043 0.000000 0.000000 0.000000
3491442347 2000 0.263674 1.532463 173.711105 0.853659 -0.060976 -0.182927 0.000977 -0.003906 1.029297 0.000000 0.000000 0.000000
3491444347 2000 0.263500 1.533011 173.710144 0.914634 0.060976 -0.304878 -0.000977 0.000977 1.023926 0.000000 0.000000 0.000000
3491446347 2000 0.264554 1.533316 173.709290 0.792683 0.243902 -0.243902 -0.008789 0.000977 1.022461 0.000000 0.000000 0.000000
3491448347 2000 0.265075 1.533742 173.708572 1.097561 0.304878 -0.182927 -0.002930 -0.003418 1.023438 0.000000 0.000000 0.000000
3491450347 2000 0.263978 1.533336 173.708206 0.975610 -0.121951 0.000000 0.003906 -0.008789 1.028809 0.000000 0.000000 0.000000
3491452347 2000 0.264413 1.532806 173.708069 0.670732 0.000000 0.121951 -0.007812 -0.004395 1.026367 0.000000 0.000000 0.000000
3491454347 2000 0.263864 1.533071 173.707474 0.853659 0.365854 -0.121951 0.007812 -0.000488 1.024902 0.000000 0.000000 0.000000
3491456347 2000 0.264362 1.533067 173.707123 0.853659 0.243902 0.000000 -0.003906 -0.002930 1.024414 0.000000 0.000000 0.000000
3491458347 2000 0.263868 1.532457 173.706375 0.792683 -0.121951 -0.182927 -0.001465 -0.007324 1.029297 0.000000 0.000000 0.000000
3491460347 2000 0.263906 1.532669 173.706009 0.853659 0.121951 0.000000 -0.001953 -0.000977 1.029785 0.000000 0.000000 0.000000
3491462347 2000 0.263513 1.532882 173.705658 0.853659 0.121951 0.000000 0.001953 -0.000977 1.029785 0.000000 0.000000 0.000000
3491464347 2000 0.263648 1.532442 173.704803 0.853659 0.000000 -0.243902 -0.004883 -0.006836 1.021973 0.000000 0.000000 0.000000
3491466347 2000 0.263276 1.532639 173.704056 0.792683 -0.060976 -0.182927 -0.001465 0.000000 1.034180 0.000000 0.000000 0.000000
3491468347 2000 0.263248 1.532357 173.703568 0.792683 0.060976 -0.060976 -0.002441 -0.004395 1.038574 0.000000 0.000000 0.000000
3491470347 2000 0.262794 1.531463 173.702469 0.731707 0.000000 -0.365854 0.000488 -0.008789 1.029785 0.000000 0.000000 0.000000
3491472347 2000 0.262723 1.531525 173.701843 0.914634 0.060976 -0.121951 -0.001953 -0.003418 1.009277 0.000000 0.000000 0.000000
3491474347 2000 0.263438 1.530044 173.701477 0.731707 0.243902 0.000000 -0.005859 -0.014160 1.028320 0.000000 0.000000 0.000000
3491476347 2000 0.263369 1.529084 173.700638 0.670732 0.060976 -0.243902 -0.001953 -0.008301 1.024414 0.000000 0.000000 0.000000
3491478347 2000 0.263802 1.529505 173.700500 0.792683 0.000000 0.121951 -0.007812 0.001953 1.030762 0.000000 0.000000 0.000000
3491480347 2000 0.264035 1.530277 173.699417 1.158537 0.182927 -0.365854 -0.002441 -0.001465 1.031250 0.000000 0.000000 0.000000
3491482347 2000 0.263704 1.529978 173.698181 0.731707 0.060976 -0.426829 0.000488 -0.003418 1.031250 0.000000 0.000000 0.000000
3491484347 2000 0.263003 1.530275 173.697220 0.975610 0.121951 -0.304878 0.004883 -0.002441 1.022461 0.000000 0.000000 0.000000
3491486347 2000 0.263662 1.530910 173.696472 1.036585 -0.060976 -0.182927 -0.010742 -0.000488 1.021973 0.000000 0.000000 0.000000
3491488347 2000 0.263947 1.532215 173.695740 1.158537 0.000000 -0.182927 -0.006348 0.003418 1.034668 0.000000 0.000000 0.000000
3491490347 2000 0.264220 1.530854 173.694763 0.609756 0.121951 -0.304878 -0.003906 -0.010742 1.020508 0.000000 0.000000 0.000000
3491492347 2000 0.263362 1.531392 173.693527 1.097561 -0.121951 -0.426829 0.001953 -0.002441 1.026855 0.000000 0.000000 0.000000
3491494347 2000 0.264123 1.531363 173.693054 0.731707 0.182927 -0.060976 -0.007324 -0.000977 1.022949 0.000000 0.000000 0.000000
3491496347 2000 0.264106 1.531699 173.692307 0.914634 0.060976 -0.182927 -0.002441 -0.000977 1.014160 0.000000 0.000000 0.000000
3491498347 2000 0.262841 1.532180 173.691803 0.853659 -0.182927 -0.060976 0.004395 0.001465 1.038086 0.000000 0.000000 0.000000
3491500347 2000 0.263625 1.532104 173.690720 0.792683 0.182927 -0.365854 -0.007324 -0.002441 1.015625 0.000000 0.000000 0.000000
3491502347 2000 0.263113 1.531776 173.690231 0.609756 0.060976 -0.060976 0.001953 -0.001465 1.018555 0.000000 0.000000 0.000000
3491504347 2000 0.261856 1.531220 173.689850 0.792683 -0.121951 0.000000 0.005371 -0.006836 1.023438 0.000000 0.000000 0.000000
3491506347 2000 0.262707 1.530745 173.688873 0.670732 0.060976 -0.304878 -0.010254 -0.003906 1.029297 0.000000 0.000000 0.000000
3491508347 2000 0.262584 1.530543 173.688019 0.914634 0.060976 -0.243902 -0.001465 -0.005859 1.029297 0.000000 0.000000 0.000000
3491510347 2000 0.262132 1.530325 173.687408 0.853659 0.060976 -0.121951 0.001465 -0.004883 1.019531 0.000000 0.000000 0.000000
3491512347 2000 0.261902 1.530692 173.687164 0.792683 -0.121951 0.060976 -0.003906 0.001465 1.019043 0.000000 0.000000 0.000000
3491514347 2000 0.262039 1.530353 173.686295 0.792683 0.243902 -0.243902 -0.000488 -0.004883 1.026367 0.000000 0.000000 0.000000
3491516347 2000 0.261647 1.530531 173.686066 0.914634 0.121951 0.060976 0.001953 -0.002441 1.028320 0.000000 0.000000 0.000000
3491518347 2000 0.260789 1.530248 173.685074 0.792683 -0.121951 -0.304878 0.001953 -0.004395 1.030762 0.000000 0.000000 0.000000
3491520347 2000 0.260631 1.529910 173.684219 0.792683 0.121951 -0.243902 0.000000 -0.004883 1.026855 0.000000 0.000000 0.000000
3491522347 2000 0.260584 1.529856 173.683258 0.853659 0.121951 -0.304878 -0.000977 -0.003418 1.024414 0.000000 0.000000 0.000000
3491524347 2000 0.260191 1.529588 173.682510 0.853659 -0.182927 -0.182927 -0.003418 -0.005371 1.028320 0.000000 0.000000 0.000000
3491526347 2000 0.259693 1.529856 173.681274 0.853659 0.000000 -0.426829 0.000977 -0.000488 1.032715 0.000000 0.000000 0.000000
3491528347 2000 0.259938 1.529450 173.680054 0.731707 0.182927 -0.426829 -0.002441 -0.004395 1.026367 0.000000 0.000000 0.000000
3491530347 2000 0.259866 1.528561 173.679306 0.487805 -0.182927 -0.182927 -0.006348 -0.004395 1.033691 0.000000 0.000000 0.000000
3491532347 2000 0.259649 1.528114 173.678711 0.975610 0.121951 -0.121951 0.000488 -0.009277 1.033203 0.000000 0.000000 0.000000
3491534347 2000 0.259473 1.528996 173.678085 0.914634 0.060976 -0.121951 -0.000977 0.003906 1.024902 0.000000 0.000000 0.000000
3491536347 2000 0.258895 1.529196 173.677353 1.036585 -0.060976 -0.182927 0.000488 -0.004395 1.007324 0.000000 0.000000 0.000000
3491538347 2000 0.258365 1.529063 173.676865 0.731707 -0.060976 -0.060976 0.000000 -0.001953 1.023438 0.000000 0.000000 0.000000
3491540347 2000 0.258437 1.529334 173.676132 0.853659 0.182927 -0.182927 -0.000977 -0.000488 1.030762 0.000000 0.000000 0.000000
3491542347 2000 0.258868 1.529163 173.675140 0.792683 -0.121951 -0.304878 -0.009766 -0.003418 1.037109 0.000000 0.000000 0.000000
3491544347 2000 0.259208 1.528637 173.674530 0.670732 -0.060976 -0.121951 -0.007812 -0.004395 1.021973 0.000000 0.000000 0.000000
3491546347 2000 0.259859 1.528679 173.673798 0.792683 0.121951 -0.182927 -0.007324 -0.001465 1.025391 0.000000 0.000000 0.000000
3491548347 2000 0.260836 1.528493 173.673080 0.731707 0.365854 -0.182927 -0.005859 -0.002441 1.023438 0.000000 0.000000 0.000000
3491550347 2000 0.260351 1.528997 173.672226 0.914634 0.121951 -0.243902 0.002930 0.000488 1.017090 0.000000 0.000000 0.000000
3491552347 2000 0.260751 1.528043 173.671249 0.914634 0.182927 -0.304878 -0.003906 -0.012695 1.026367 0.000000 0.000000 0.000000
3491554347 2000 0.260801 1.528479 173.670639 0.853659 0.121951 -0.121951 -0.001953 0.000977 1.027344 0.000000 0.000000 0.000000
3491556347 2000 0.260461 1.528806 173.670044 0.853659 0.060976 -0.121951 0.000488 0.000000 1.033691 0.000000 0.000000 0.000000
3491558347 2000 0.260095 1.529174 173.669281 1.036585 -0.304878 -0.182927 -0.005859 -0.002930 1.025879 0.000000 0.000000 0.000000
3491560347 2000 0.260329 1.529796 173.668289 0.975610 -0.060976 -0.304878 -0.006836 0.000488 1.029297 0.000000 0.000000 0.000000
3491562347 2000 0.261582 1.530486 173.667572 1.036585 0.182927 -0.182927 -0.011719 0.000000 1.028320 0.000000 0.000000 0.000000
3491564347 2000 0.261795 1.530793 173.666351 0.792683 0.060976 -0.426829 -0.004395 0.000977 1.029785 0.000000 0.000000 0.000000
3491566347 2000 0.261536 1.531976 173.665253 0.792683 -0.121951 -0.365854 -0.003418 0.008789 1.013184 0.000000 0.000000 0.000000
3491568347 2000 0.260521 1.531684 173.664383 0.792683 -0.060976 -0.243902 0.004395 -0.004395 1.016113 0.000000 0.000000 0.000000
3491570347 2000 0.260374 1.531342 173.663666 0.548781 0.182927 -0.182927 0.000977 -0.000488 1.022949 0.000000 0.000000 0.000000
3491572347 2000 0.260831 1.530876 173.662689 0.731707 0.182927 -0.304878 -0.004395 -0.004883 1.018066 0.000000 0.000000 0.000000
3491574347 2000 0.261897 1.530524 173.662094 0.914634 0.365854 -0.121951 -0.006836 -0.007324 1.043457 0.000000 0.000000 0.000000
3491576347 2000 0.261859 1.530724 173.661255 0.792683 0.182927 -0.243902 0.000000 0.000000 1.024902 0.000000 0.000000 0.000000
3491578347 2000 0.261085 1.530672 173.660263 0.853659 0.000000 -0.304878 0.003418 -0.003418 1.038574 0.000000 0.000000 0.000000
3491580347 2000 0.260443 1.531128 173.659775 0.731707 -0.060976 -0.060976 0.000977 0.003418 1.028809 0.000000 0.000000 0.000000
3491582347 2000 0.260605 1.530680 173.659149 1.036585 -0.121951 -0.121951 -0.007324 -0.010254 1.021973 0.000000 0.000000 0.000000
3491584347 2000 0.260845 1.531342 173.658539 0.914634 0.000000 -0.121951 -0.005859 0.001953 1.024414 0.000000 0.000000 0.000000
3491586347 2000 0.261541 1.531609 173.657806 0.853659 0.121951 -0.182927 -0.007812 -0.000488 1.032227 0.000000 0.000000 0.000000
3491588347 2000 0.261676 1.531146 173.656937 0.914634 -0.182927 -0.243902 -0.008301 -0.008301 1.041504 0.000000 0.000000 0.000000
3491590347 2000 0.261509 1.532053 173.656097 0.853659 0.304878 -0.243902 0.003418 0.005371 1.038086 0.000000 0.000000 0.000000
3491592347 2000 0.260353 1.531983 173.655594 0.792683 -0.182927 -0.060976 0.003418 -0.002441 1.027344 0.000000 0.000000 0.000000
3491594347 2000 0.261096 1.531827 173.654617 0.914634 0.243902 -0.304878 -0.005859 -0.005371 1.017578 0.000000 0.000000 0.000000
3491596347 2000 0.261127 1.533054 173.653778 1.036585 0.000000 -0.243902 -0.003906 0.004883 1.021484 0.000000 0.000000 0.000000
3491598347 2000 0.261643 1.532910 173.652557 0.731707 0.182927 -0.426829 -0.004883 -0.001953 1.019043 0.000000 0.000000 0.000000
3491600347 2000 0.261815 1.532831 173.651825 0.975610 0.182927 -0.182927 -0.001953 -0.005859 1.037598 0.000000 0.000000 0.000000
3491602347 2000 0.261815 1.531856 173.650955 0.853659 -0.121951 -0.243902 -0.005859 -0.011719 1.026855 0.000000 0.000000 0.000000
3491604347 2000 0.261283 1.532001 173.650330 0.792683 -0.060976 -0.121951 0.000000 -0.000488 1.022461 0.000000 0.000000 0.000000
3491606347 2000 0.260435 1.532160 173.649597 0.853659 -0.060976 -0.182927 0.002930 -0.001465 1.036621 0.000000 0.000000 0.000000
3491608347 2000 0.260704 1.531698 173.649719 0.487805 0.000000 0.243902 -0.006348 -0.000488 1.032715 0.000000 0.000000 0.000000
3491610347 2000 0.260503 1.532246 173.648361 0.914634 -0.121951 -0.487805 -0.003906 0.000977 1.026855 0.000000 0.000000 0.000000
3491612347 2000 0.259804 1.532262 173.647888 0.914634 0.121951 -0.060976 0.004883 -0.003906 1.040039 0.000000 0.000000 0.000000
3491614347 2000 0.260327 1.531600 173.647278 0.792683 0.060976 -0.121951 -0.007324 -0.007812 1.028320 0.000000 0.000000 0.000000
3491616347 2000 0.259427 1.531994 173.646652 0.670732 0.000000 -0.121951 0.004395 0.003906 1.011230 0.000000 0.000000 0.000000
3491618347 2000 0.259170 1.532380 173.645569 0.914634 0.121951 -0.365854 0.000977 -0.000488 1.027832 0.000000 0.000000 0.000000
3491620347 2000 0.258906 1.532243 173.645203 0.731707 -0.060976 0.000000 -0.002441 -0.001953 1.030762 0.000000 0.000000 0.000000
3491622347 2000 0.258926 1.532738 173.644699 0.914634 0.000000 -0.060976 -0.003906 0.000488 1.033203 0.000000 0.000000 0.000000
3491624347 2000 0.258745 1.532721 173.644333 0.792683 0.060976 0.000000 -0.000977 -0.001953 1.023438 0.000000 0.000000 0.000000
3491626347 2000 0.258420 1.531368 173.643845 0.609756 0.121951 -0.060976 0.001465 -0.010742 1.026855 0.000000 0.000000 0.000000
3491628347 2000 0.257918 1.531425 173.642868 1.158537 0.000000 -0.304878 0.000977 -0.007812 1.012695 0.000000 0.000000 0.000000
3491630347 2000 0.258420 1.530946 173.641891 0.914634 0.121951 -0.304878 -0.005859 -0.008301 1.020020 0.000000 0.000000 0.000000
3491632347 2000 0.258872 1.530784 173.641663 0.853659 0.243902 0.060976 -0.003418 -0.004395 1.023438 0.000000 0.000000 0.000000
3491634347 2000 0.258523 1.529752 173.641037 0.853659 0.000000 -0.121951 -0.000488 -0.012207 1.019531 0.000000 0.000000 0.000000
3491636347 2000 0.258371 1.529983 173.640656 0.914634 -0.060976 0.000000 -0.003418 -0.001953 1.018066 0.000000 0.000000 0.000000
3491638347 2000 0.259198 1.529840 173.640427 0.914634 0.243902 0.060976 -0.006836 -0.005371 1.029297 0.000000 0.000000 0.000000
3491640347 2000 0.259587 1.529891 173.638962 0.853659 0.060976 -0.548781 -0.005859 -0.002441 1.022461 0.000000 0.000000 0.000000
3491642347 2000 0.259096 1.528737 173.638107 0.731707 0.060976 -0.243902 0.001953 -0.011230 1.031250 0.000000 0.000000 0.000000
3491644347 2000 0.259319 1.529359 173.636765 0.975610 0.304878 -0.487805 0.000000 0.000488 1.021973 0.000000 0.000000 0.000000
3491646347 2000 0.259455 1.528193 173.636276 0.731707 0.000000 -0.060976 -0.004883 -0.011230 1.017090 0.000000 0.000000 0.000000
3491648347 2000 0.258903 1.527728 173.636017 0.670732 -0.121951 0.060976 -0.000977 -0.003906 1.033203 0.000000 0.000000 0.000000
3491650347 2000 0.259061 1.527400 173.635040 1.036585 0.060976 -0.304878 -0.003906 -0.009277 1.029297 0.000000 0.000000 0.000000
3491652347 2000 0.259631 1.527851 173.634460 0.914634 0.487805 -0.121951 0.000000 0.000000 1.035156 0.000000 0.000000 0.000000
3491654347 2000 0.259299 1.528543 173.633102 1.036585 0.000000 -0.487805 -0.000488 0.000000 1.019531 0.000000 0.000000 0.000000
3491656347 2000 0.259083 1.528816 173.632507 0.853659 0.121951 -0.121951 0.000488 -0.000488 1.025879 0.000000 0.000000 0.000000
3491658347 2000 0.258957 1.528602 173.632141 0.853659 0.060976 0.000000 -0.001465 -0.004883 1.019043 0.000000 0.000000 0.000000
3491660347 2000 0.259436 1.528347 173.631393 0.914634 0.060976 -0.182927 -0.006836 -0.006348 1.020508 0.000000 0.000000 0.000000
3491662347 2000 0.258804 1.528959 173.630661 0.914634 -0.060976 -0.182927 0.000977 0.001465 1.024902 0.000000 0.000000 0.000000
3491664347 2000 0.259312 1.528702 173.629944 0.914634 0.182927 -0.182927 -0.004883 -0.006348 1.019043 0.000000 0.000000 0.000000
3491666347 2000 0.259774 1.528243 173.629440 0.731707 0.000000 -0.060976 -0.007812 -0.004883 1.016602 0.000000 0.000000 0.000000
3491668347 2000 0.259566 1.527892 173.628571 0.731707 -0.121951 -0.243902 -0.003906 -0.003906 1.017090 0.000000 0.000000 0.000000
3491670347 2000 0.258672 1.527814 173.627594 0.731707 -0.060976 -0.304878 0.003418 -0.001465 1.028320 0.000000 0.000000 0.000000
3491672347 2000 0.258638 1.527401 173.627090 0.670732 -0.243902 -0.060976 -0.007812 -0.003418 1.029297 0.000000 0.000000 0.000000
3491674347 2000 0.257788 1.528611 173.626953 0.914634 0.000000 0.121951 0.003906 0.006836 1.024902 0.000000 0.000000 0.000000
3491676347 2000 0.256767 1.528193 173.625732 0.914634 -0.182927 -0.426829 0.002441 -0.007812 1.023926 0.000000 0.000000 0.000000
3491678347 2000 0.257631 1.527247 173.625000 0.487805 0.304878 -0.182927 -0.005859 -0.004883 1.019043 0.000000 0.000000 0.000000
3491680347 2000 0.258695 1.528198 173.623672 1.219512 0.182927 -0.487805 -0.009766 -0.000977 1.023926 0.000000 0.000000 0.000000
3491682347 2000 0.258327 1.528579 173.622681 0.853659 -0.121951 -0.304878 -0.002441 0.000488 1.025879 0.000000 0.000000 0.000000
3491684347 2000 0.257580 1.527978 173.621948 0.792683 0.121951 -0.182927 0.005371 -0.007324 1.030273 0.000000 0.000000 0.000000
3491686347 2000 0.257862 1.529341 173.621353 0.914634 -0.060976 -0.121951 -0.007324 0.008301 1.030273 0.000000 0.000000 0.000000
3491688347 2000 0.258059 1.529459 173.619629 0.914634 0.121951 -0.670732 -0.002930 -0.002930 1.019043 0.000000 0.000000 0.000000
3491690347 2000 0.259298 1.529409 173.618912 0.853659 0.365854 -0.182927 -0.008301 -0.003418 1.036133 0.000000 0.000000 0.000000
3491692347 2000 0.258986 1.529763 173.617935 0.975610 0.121951 -0.304878 0.001465 -0.001953 1.036133 0.000000 0.000000 0.000000
3491694347 2000 0.258994 1.529312 173.616821 0.975610 -0.121951 -0.365854 -0.005859 -0.009277 1.033203 0.000000 0.000000 0.000000
3491696347 2000 0.258418 1.528952 173.616577 0.914634 0.000000 0.060976 0.001465 -0.007324 1.024902 0.000000 0.000000 0.000000
3491698347 2000 0.259418 1.528905 173.616333 0.426829 0.121951 0.060976 -0.010742 0.004395 1.041016 0.000000 0.000000 0.000000
3491700347 2000 0.259560 1.530212 173.615356 0.914634 0.000000 -0.304878 -0.004883 0.007812 1.028320 0.000000 0.000000 0.000000
3491702347 2000 0.258897 1.529752 173.614731 0.731707 -0.182927 -0.121951 -0.000977 -0.004883 1.022461 0.000000 0.000000 0.000000
3491704347 2000 0.258371 1.529405 173.614120 0.731707 -0.060976 -0.121951 0.000000 -0.003906 1.033691 0.000000 0.000000 0.000000
3491706347 2000 0.258241 1.529531 173.613525 0.914634 0.243902 -0.121951 0.001953 -0.002930 1.034668 0.000000 0.000000 0.000000
3491708347 2000 0.259703 1.528570 173.613037 0.853659 0.182927 -0.060976 -0.013672 -0.011719 1.030762 0.000000 0.000000 0.000000
3491710347 2000 0.259057 1.528490 173.611938 0.731707 0.060976 -0.365854 0.003418 -0.001465 1.034668 0.000000 0.000000 0.000000
3491712347 2000 0.259610 1.528031 173.610947 0.975610 0.121951 -0.304878 -0.006348 -0.009277 1.021484 0.000000 0.000000 0.000000
3491714347 2000 0.259427 1.527471 173.610092 0.975610 0.000000 -0.243902 -0.001953 -0.010254 1.026367 0.000000 0.000000 0.000000
3491716347 2000 0.258881 1.527479 173.609604 0.853659 -0.121951 -0.060976 -0.000977 -0.002930 1.032227 0.000000 0.000000 0.000000
3491718347 2000 0.259456 1.527255 173.608490 0.792683 0.000000 -0.365854 -0.008789 -0.003906 1.031250 0.000000 0.000000 0.000000
3491720347 2000 0.259660 1.526894 173.607880 0.914634 0.060976 -0.121951 -0.004395 -0.007324 1.020508 0.000000 0.000000 0.000000
3491722347 2000 0.260349 1.526590 173.607132 0.670732 0.060976 -0.182927 -0.008789 -0.002441 1.027344 0.000000 0.000000 0.000000
3491724347 2000 0.260212 1.526637 173.606537 1.036585 0.243902 -0.121951 0.001953 -0.005859 1.020508 0.000000 0.000000 0.000000
3491726347 2000 0.260615 1.527142 173.605438 0.914634 0.182927 -0.365854 -0.003906 0.000488 1.025391 0.000000 0.000000 0.000000
3491728347 2000 0.261073 1.526651 173.604584 0.792683 0.000000 -0.243902 -0.007812 -0.006348 1.030273 0.000000 0.000000 0.000000
3491730347 2000 0.260857 1.526168 173.603867 0.853659 0.121951 -0.182927 0.000488 -0.007324 1.019043 0.000000 0.000000 0.000000
3491732347 2000 0.260832 1.526269 173.602997 0.792683 0.000000 -0.243902 -0.003418 -0.000977 1.027344 0.000000 0.000000 0.000000
3491734347 2000 0.260412 1.526509 173.602264 0.914634 -0.060976 -0.182927 -0.000977 -0.001953 1.040039 0.000000 0.000000 0.000000
3491736347 2000 0.261175 1.526094 173.601654 0.670732 0.121951 -0.121951 -0.008301 -0.003418 1.014648 0.000000 0.000000 0.000000
3491738347 2000 0.260920 1.526562 173.600906 0.975610 -0.060976 -0.182927 -0.002441 -0.000977 1.017090 0.000000 0.000000 0.000000
3491740347 2000 0.260554 1.525864 173.600677 0.853659 0.243902 0.060976 0.003906 -0.009277 1.018066 0.000000 0.000000 0.000000
3491742347 2000 0.260727 1.525722 173.599823 0.670732 -0.060976 -0.243902 -0.006348 -0.000977 1.033691 0.000000 0.000000 0.000000
3491744347 2000 0.261300 1.526246 173.599213 0.975610 0.243902 -0.121951 -0.004395 -0.000488 1.010254 0.000000 0.000000 0.000000
3491746347 2000 0.261023 1.524868 173.598236 0.487805 0.060976 -0.304878 0.000000 -0.008789 1.016602 0.000000 0.000000 0.000000
3491748347 2000 0.260671 1.524433 173.597107 0.975610 -0.243902 -0.365854 -0.004883 -0.009277 1.041016 0.000000 0.000000 0.000000
3491750347 2000 0.260113 1.524418 173.596497 0.731707 0.060976 -0.121951 0.002441 -0.000977 1.019043 0.000000 0.000000 0.000000
3491752347 2000 0.259583 1.524834 173.595657 0.975610 0.121951 -0.243902 0.003418 -0.001465 1.037109 0.000000 0.000000 0.000000
3491754347 2000 0.259700 1.524617 173.595032 0.792683 -0.060976 -0.121951 -0.005859 -0.003906 1.030273 0.000000 0.000000 0.000000
3491756347 2000 0.259839 1.524725 173.594788 1.036585 0.060976 0.060976 -0.003906 -0.005371 1.022949 0.000000 0.000000 0.000000
3491758347 2000 0.259791 1.524654 173.593933 0.731707 0.121951 -0.243902 -0.000977 -0.001465 1.025879 0.000000 0.000000 0.000000
3491760347 2000 0.259048 1.525441 173.593323 0.731707 -0.060976 -0.121951 0.001953 0.006348 1.034180 0.000000 0.000000 0.000000
3491762347 2000 0.258396 1.525775 173.592957 0.853659 0.121951 0.000000 0.004395 0.000000 1.027832 0.000000 0.000000 0.000000
3491764347 2000 0.258524 1.525850 173.592484 0.670732 0.000000 -0.060976 -0.004883 0.000977 1.035645 0.000000 0.000000 0.000000
3491766347 2000 0.259128 1.525306 173.591232 0.792683 -0.121951 -0.426829 -0.011230 -0.006836 1.030273 0.000000 0.000000 0.000000
3491768347 2000 0.259121 1.525069 173.590500 0.731707 0.060976 -0.182927 -0.002441 -0.002930 1.013672 0.000000 0.000000 0.000000
3491770347 2000 0.259356 1.524443 173.589294 0.670732 0.365854 -0.426829 0.000977 -0.005371 1.025879 0.000000 0.000000 0.000000
3491772347 2000 0.258987 1.524470 173.588806 0.914634 -0.060976 -0.060976 -0.001465 -0.003906 1.027832 0.000000 0.000000 0.000000
3491774347 2000 0.258874 1.524567 173.588181 0.975610 -0.121951 -0.121951 -0.004883 -0.004395 1.033203 0.000000 0.000000 0.000000
3491776347 2000 0.258910 1.524671 173.587326 0.792683 0.243902 -0.243902 0.000488 -0.000977 1.031250 0.000000 0.000000 0.000000
3491778347 2000 0.259024 1.524492 173.586472 0.731707 -0.121951 -0.243902 -0.006836 -0.002441 1.025391 0.000000 0.000000 0.000000
3491780347 2000 0.258792 1.523758 173.585480 0.914634 -0.243902 -0.304878 -0.005859 -0.010742 1.021973 0.000000 0.000000 0.000000
3491782347 2000 0.259082 1.523662 173.584610 0.853659 -0.060976 -0.243902 -0.007324 -0.003906 1.024902 0.000000 0.000000 0.000000
3491784347 2000 0.258220 1.523378 173.584366 0.731707 -0.060976 0.060976 0.002930 -0.003418 1.020020 0.000000 0.000000 0.000000
3491786347 2000 0.258679 1.522996 173.583618 0.792683 -0.060976 -0.182927 -0.008789 -0.005371 1.016113 0.000000 0.000000 0.000000
3491788347 2000 0.259157 1.521861 173.582886 0.792683 0.060976 -0.182927 -0.006836 -0.012207 1.023438 0.000000 0.000000 0.000000
3491790347 2000 0.258605 1.521443 173.582153 0.609756 0.060976 -0.182927 0.002441 -0.002441 1.018066 0.000000 0.000000 0.000000
3491792347 2000 0.258329 1.521974 173.581299 0.975610 0.060976 -0.243902 0.000000 -0.000488 1.029785 0.000000 0.000000 0.000000
3491794347 2000 0.257221 1.522328 173.580551 0.914634 0.000000 -0.182927 0.006348 -0.000977 1.015137 0.000000 0.000000 0.000000
3491796347 2000 0.257515 1.523045 173.579330 0.853659 -0.121951 -0.426829 -0.008301 0.003418 1.019531 0.000000 0.000000 0.000000
3491798347 2000 0.257660 1.522944 173.578598 0.792683 0.060976 -0.182927 -0.003906 -0.002930 1.050781 0.000000 0.000000 0.000000
3491800347 2000 0.256886 1.522986 173.578217 0.731707 -0.182927 0.000000 0.000000 -0.000488 1.021973 0.000000 0.000000 0.000000
3491802347 2000 0.258293 1.523581 173.577255 1.036585 0.304878 -0.304878 -0.010742 -0.000977 1.023926 0.000000 0.000000 0.000000
3491804347 2000 0.259038 1.524658 173.576538 1.036585 0.304878 -0.182927 -0.004883 0.003418 1.033203 0.000000 0.000000 0.000000
3491806347 2000 0.259006 1.524529 173.575928 0.914634 0.000000 -0.121951 -0.003418 -0.005371 1.039551 0.000000 0.000000 0.000000
3491808347 2000 0.258039 1.524043 173.574814 0.792683 0.060976 -0.365854 0.006348 -0.006348 1.031738 0.000000 0.000000 0.000000
3491810347 2000 0.258065 1.524948 173.574326 0.975610 0.000000 -0.060976 -0.003906 0.002930 1.023926 0.000000 0.000000 0.000000
3491812347 2000 0.257078 1.525565 173.573486 0.914634 0.000000 -0.243902 0.005371 0.001465 1.030273 0.000000 0.000000 0.000000
3491814347 2000 0.256411 1.525642 173.572739 0.914634 0.000000 -0.182927 0.002441 -0.003418 1.026367 0.000000 0.000000 0.000000
3491816347 2000 0.255667 1.525581 173.571762 0.792683 0.121951 -0.304878 0.005371 -0.002441 1.019043 0.000000 0.000000 0.000000
3491818347 2000 0.255320 1.524879 173.571274 0.792683 0.000000 -0.060976 -0.000488 -0.008301 1.028320 0.000000 0.000000 0.000000
3491820347 2000 0.255240 1.524699 173.570419 0.731707 0.182927 -0.243902 0.000488 -0.002441 1.027832 0.000000 0.000000 0.000000
3491822347 2000 0.255998 1.525195 173.569824 0.853659 0.121951 -0.121951 -0.008301 0.001465 1.032227 0.000000 0.000000 0.000000
3491824347 2000 0.255580 1.524722 173.569946 0.853659 0.000000 0.243902 0.000000 -0.007324 1.022949 0.000000 0.000000 0.000000
3491826347 2000 0.255334 1.524894 173.569199 0.609756 -0.060976 -0.182927 -0.002441 0.002930 1.022949 0.000000 0.000000 0.000000
3491828347 2000 0.254774 1.524671 173.568100 0.792683 -0.060976 -0.365854 0.000488 -0.003906 1.019531 0.000000 0.000000 0.000000
3491830347 2000 0.254736 1.524221 173.567230 0.731707 0.121951 -0.243902 -0.000977 -0.004883 1.023438 0.000000 0.000000 0.000000
3491832347 2000 0.254198 1.524326 173.566376 0.792683 -0.182927 -0.243902 -0.001953 -0.000977 1.018555 0.000000 0.000000 0.000000
3491834347 2000 0.254196 1.524715 173.565277 0.853659 0.000000 -0.365854 -0.003418 0.000488 1.018555 0.000000 0.000000 0.000000
3491836347 2000 0.254367 1.524196 173.564301 0.853659 0.304878 -0.304878 0.000488 -0.007812 1.039062 0.000000 0.000000 0.000000
3491838347 2000 0.254485 1.525011 173.563583 0.853659 0.121951 -0.182927 -0.002441 0.004395 1.038086 0.000000 0.000000 0.000000
3491840347 2000 0.254975 1.526252 173.562729 1.036585 0.304878 -0.243902 -0.002441 0.004883 1.022461 0.000000 0.000000 0.000000
3491842347 2000 0.255698 1.527057 173.562134 1.036585 0.182927 -0.121951 -0.006836 0.000977 1.027832 0.000000 0.000000 0.000000
3491844347 2000 0.255193 1.526701 173.561371 0.914634 -0.243902 -0.182927 -0.003418 -0.007324 1.027344 0.000000 0.000000 0.000000
3491846347 2000 0.254609 1.526191 173.560638 0.914634 -0.121951 -0.182927 -0.000488 -0.008789 1.035156 0.000000 0.000000 0.000000
3491848347 2000 0.254223 1.526991 173.559799 0.792683 0.243902 -0.243902 0.004395 0.005371 1.030273 0.000000 0.000000 0.000000
3491850347 2000 0.254492 1.527577 173.559555 0.792683 0.121951 0.060976 -0.003906 0.003418 1.029297 0.000000 0.000000 0.000000
3491852347 2000 0.254486 1.528311 173.558823 0.975610 -0.182927 -0.182927 -0.006836 0.001465 1.029785 0.000000 0.000000 0.000000
3491854347 2000 0.254916 1.527870 173.558228 0.792683 0.304878 -0.121951 -0.001953 -0.005859 1.025879 0.000000 0.000000 0.000000
3491856347 2000 0.254952 1.527915 173.557480 0.792683 0.000000 -0.182927 -0.003906 -0.001465 1.030273 0.000000 0.000000 0.000000
3491858347 2000 0.253931 1.528301 173.556259 1.097561 0.000000 -0.426829 0.005859 -0.003906 1.036133 0.000000 0.000000 0.000000
3491860347 2000 0.255494 1.529170 173.555405 1.097561 0.243902 -0.243902 -0.013184 0.000488 1.020508 0.000000 0.000000 0.000000
3491862347 2000 0.255627 1.528818 173.554688 0.487805 0.182927 -0.182927 -0.001465 0.000488 1.029297 0.000000 0.000000 0.000000
3491864347 2000 0.255146 1.528831 173.553574 0.914634 0.060976 -0.365854 0.001953 -0.003906 1.019531 0.000000 0.000000 0.000000
3491866347 2000 0.255341 1.529292 173.552628 0.731707 0.182927 -0.304878 -0.001953 0.003418 1.022461 0.000000 0.000000 0.000000
3491868347 2000 0.255468 1.528821 173.552124 0.670732 0.182927 -0.060976 -0.001465 -0.003906 1.023438 0.000000 0.000000 0.000000
3491870347 2000 0.256629 1.529389 173.552017 0.731707 0.060976 0.121951 -0.013184 0.004395 1.030762 0.000000 0.000000 0.000000
3491872347 2000 0.256219 1.529204 173.551773 0.975610 0.000000 0.060976 0.000000 -0.006836 1.022949 0.000000 0.000000 0.000000
3491874347 2000 0.256810 1.529747 173.551529 0.853659 0.121951 0.060976 -0.006836 0.001953 1.024902 0.000000 0.000000 0.000000
3491876347 2000 0.256578 1.529978 173.550674 0.914634 0.000000 -0.243902 -0.001465 -0.001953 1.025391 0.000000 0.000000 0.000000
3491878347 2000 0.255910 1.529623 173.549927 0.975610 0.000000 -0.182927 0.002441 -0.008301 1.019043 0.000000 0.000000 0.000000
3491880347 2000 0.256550 1.529774 173.548721 1.036585 0.000000 -0.426829 -0.009277 -0.004883 1.028809 0.000000 0.000000 0.000000
3491882347 2000 0.256615 1.528627 173.548462 0.548781 0.182927 0.060976 -0.000977 -0.007812 1.023438 0.000000 0.000000 0.000000
3491884347 2000 0.256143 1.529562 173.547485 0.914634 -0.121951 -0.304878 -0.001465 0.004395 1.024414 0.000000 0.000000 0.000000
3491886347 2000 0.255580 1.528282 173.546860 0.670732 -0.243902 -0.121951 -0.002930 -0.011230 1.025879 0.000000 0.000000 0.000000
3491888347 2000 0.256381 1.527862 173.546616 0.853659 0.121951 0.060976 -0.008789 -0.006836 1.033691 0.000000 0.000000 0.000000
3491890347 2000 0.256952 1.527892 173.545761 0.731707 0.000000 -0.243902 -0.008789 -0.000488 1.033203 0.000000 0.000000 0.000000
3491892347 2000 0.256315 1.528141 173.545380 0.975610 -0.060976 0.000000 0.000977 -0.002930 1.023438 0.000000 0.000000 0.000000
3491894347 2000 0.256821 1.527966 173.544540 0.792683 0.121951 -0.243902 -0.005859 -0.003418 1.013672 0.000000 0.000000 0.000000
3491896347 2000 0.256996 1.527972 173.543915 0.853659 -0.060976 -0.121951 -0.006348 -0.002930 1.032227 0.000000 0.000000 0.000000
3491898347 2000 0.256628 1.527887 173.543533 0.914634 -0.060976 0.000000 -0.001465 -0.004883 1.029785 0.000000 0.000000 0.000000
3491900347 2000 0.256279 1.527484 173.542572 0.731707 0.182927 -0.304878 0.002930 -0.004395 1.022949 0.000000 0.000000 0.000000
3491902347 2000 0.256871 1.527092 173.542084 0.975610 0.121951 -0.060976 -0.006836 -0.008789 1.031738 0.000000 0.000000 0.000000
3491904347 2000 0.257267 1.527869 173.541107 0.914634 0.121951 -0.304878 -0.004883 0.002930 1.020508 0.000000 0.000000 0.000000
3491906347 2000 0.256585 1.527609 173.540741 0.914634 0.000000 0.000000 0.002441 -0.006348 1.007812 0.000000 0.000000 0.000000
3491908347 2000 0.256028 1.527816 173.539993 0.792683 0.000000 -0.182927 0.001465 0.000000 1.033203 0.000000 0.000000 0.000000
3491910347 2000 0.256600 1.527699 173.539642 0.792683 0.000000 0.000000 -0.008789 -0.002930 1.019043 0.000000 0.000000 0.000000
3491912347 2000 0.256519 1.528244 173.538773 1.097561 -0.060976 -0.243902 -0.003906 -0.002441 1.020020 0.000000 0.000000 0.000000
3491914347 2000 0.256314 1.528569 173.537430 0.853659 0.060976 -0.487805 -0.000488 0.000000 1.036621 0.000000 0.000000 0.000000
3491916347 2000 0.257550 1.528244 173.536591 0.853659 0.243902 -0.243902 -0.010254 -0.005859 1.018066 0.000000 0.000000 0.000000
3491918347 2000 0.257750 1.528425 173.535950 0.914634 -0.182927 -0.121951 -0.008789 -0.002441 1.029785 0.000000 0.000000 0.000000
3491920347 2000 0.256990 1.528386 173.535233 0.670732 0.060976 -0.182927 0.004395 0.000000 1.031250 0.000000 0.000000 0.000000
3491922347 2000 0.256988 1.529496 173.533875 0.975610 0.000000 -0.487805 -0.003418 0.004883 1.023926 0.000000 0.000000 0.000000
3491924347 2000 0.256393 1.530415 173.533035 1.097561 0.060976 -0.243902 0.002930 0.000977 1.029297 0.000000 0.000000 0.000000
3491926347 2000 0.256166 1.531022 173.532547 0.914634 0.060976 -0.060976 -0.000488 0.001465 1.027832 0.000000 0.000000 0.000000
3491928347 2000 0.256189 1.529833 173.531311 0.853659 0.121951 -0.426829 -0.001465 -0.013672 1.026367 0.000000 0.000000 0.000000
3491930347 2000 0.254826 1.530021 173.530334 0.731707 -0.243902 -0.304878 0.004395 0.000977 1.024902 0.000000 0.000000 0.000000
3491932347 2000 0.254925 1.530479 173.529831 0.731707 0.060976 -0.060976 -0.003418 0.003418 1.029297 0.000000 0.000000 0.000000
3491934347 2000 0.255350 1.530100 173.529358 0.609756 0.060976 -0.060976 -0.006348 -0.001953 1.023438 0.000000 0.000000 0.000000
3491936347 2000 0.254770 1.530330 173.528976 0.914634 -0.060976 0.000000 0.000488 -0.001953 1.019043 0.000000 0.000000 0.000000
3491938347 2000 0.253759 1.530066 173.528732 0.853659 -0.060976 0.060976 0.004395 -0.005371 1.032227 0.000000 0.000000 0.000000
3491940347 2000 0.253538 1.531082 173.528244 1.036585 0.060976 -0.060976 -0.000488 0.002930 1.020020 0.000000 0.000000 0.000000
3491942347 2000 0.253854 1.530857 173.527863 0.792683 -0.121951 0.000000 -0.008789 -0.003906 1.038086 0.000000 0.000000 0.000000
3491944347 2000 0.253416 1.530627 173.526886 0.792683 0.000000 -0.304878 0.000488 -0.003906 1.034180 0.000000 0.000000 0.000000
3491946347 2000 0.252331 1.530995 173.526535 1.036585 0.060976 0.000000 0.007324 -0.002930 1.028809 0.000000 0.000000 0.000000
3491948347 2000 0.252884 1.530081 173.525665 0.609756 0.121951 -0.243902 -0.006348 -0.006836 1.036133 0.000000 0.000000 0.000000
3491950347 2000 0.252522 1.530243 173.524933 0.853659 -0.121951 -0.182927 -0.002441 -0.001465 1.019043 0.000000 0.000000 0.000000
3491952347 2000 0.252817 1.530683 173.523834 0.670732 0.121951 -0.365854 -0.003906 0.004395 1.030273 0.000000 0.000000 0.000000
3491954347 2000 0.253723 1.530966 173.523117 0.914634 0.243902 -0.182927 -0.007324 -0.001465 1.027832 0.000000 0.000000 0.000000
3491956347 2000 0.253902 1.530681 173.522247 0.792683 0.121951 -0.243902 -0.002930 -0.004395 1.026855 0.000000 0.000000 0.000000
3491958347 2000 0.254836 1.530828 173.521652 0.792683 0.182927 -0.121951 -0.008789 -0.000488 1.034668 0.000000 0.000000 0.000000
3491960347 2000 0.255176 1.531003 173.520676 0.914634 0.121951 -0.304878 -0.004395 -0.002441 1.033203 0.000000 0.000000 0.000000
3491962347 2000 0.255080 1.530895 173.519333 0.853659 0.060976 -0.487805 -0.001465 -0.003906 1.037598 0.000000 0.000000 0.000000
3491964347 2000 0.255441 1.530948 173.518463 0.853659 0.000000 -0.243902 -0.006836 -0.002441 1.031738 0.000000 0.000000 0.000000
3491966347 2000 0.255965 1.530337 173.517853 0.792683 0.000000 -0.121951 -0.008301 -0.007324 1.021484 0.000000 0.000000 0.000000
3491968347 2000 0.255426 1.530890 173.517365 0.914634 -0.121951 -0.060976 -0.000977 0.000977 1.036621 0.000000 0.000000 0.000000
3491970347 2000 0.255153 1.531371 173.516129 0.853659 0.000000 -0.426829 -0.000977 0.001465 1.026855 0.000000 0.000000 0.000000
3491972347 2000 0.255700 1.531032 173.515671 0.792683 0.365854 -0.060976 -0.001953 -0.004883 1.024902 0.000000 0.000000 0.000000
3491974347 2000 0.256086 1.530780 173.514542 0.914634 -0.121951 -0.365854 -0.009277 -0.006348 1.036621 0.000000 0.000000 0.000000
3491976347 2000 0.255780 1.531004 173.513077 0.914634 -0.182927 -0.548781 -0.003906 -0.001953 1.016602 0.000000 0.000000 0.000000
3491978347 2000 0.255739 1.530381 173.511719 0.975610 0.060976 -0.487805 -0.001953 -0.010742 1.025879 0.000000 0.000000 0.000000
3491980347 2000 0.255929 1.530527 173.510498 0.792683 0.121951 -0.426829 -0.002930 -0.000488 1.012207 0.000000 0.000000 0.000000
3491982347 2000 0.255841 1.530396 173.509766 0.975610 -0.060976 -0.182927 -0.003906 -0.006348 1.031738 0.000000 0.000000 0.000000
3491984347 2000 0.255490 1.530519 173.509399 0.914634 0.000000 0.000000 -0.000488 -0.002930 1.024414 0.000000 0.000000 0.000000
3491986347 2000 0.256614 1.531507 173.509033 0.914634 0.060976 0.000000 -0.012695 0.004883 1.023438 0.000000 0.000000 0.000000
3491988347 2000 0.256436 1.530964 173.508163 0.853659 0.000000 -0.243902 -0.001953 -0.007812 1.025391 0.000000 0.000000 0.000000
3491990347 2000 0.256176 1.531394 173.507660 0.853659 -0.304878 -0.060976 -0.006836 0.000977 1.031738 0.000000 0.000000 0.000000
3491992347 2000 0.256267 1.531161 173.506943 1.036585 0.243902 -0.182927 0.000000 -0.008301 1.021973 0.000000 0.000000 0.000000
3491994347 2000 0.255871 1.530604 173.506195 0.792683 0.000000 -0.182927 0.000000 -0.006836 1.022949 0.000000 0.000000 0.000000
3491996347 2000 0.256023 1.530470 173.505585 0.731707 0.060976 -0.121951 -0.003906 -0.001953 1.032715 0.000000 0.000000 0.000000
3491998347 2000 0.255943 1.529739 173.504745 0.731707 0.182927 -0.243902 0.000488 -0.007324 1.026855 0.000000 0.000000 0.000000
3492000347 2000 0.255655 1.529674 173.503998 0.792683 0.000000 -0.182927 -0.000977 -0.002441 1.031738 0.000000 0.000000 0.000000
3492002347 2000 0.255790 1.528885 173.502777 0.731707 -0.121951 -0.426829 -0.006836 -0.007812 1.019043 0.000000 0.000000 0.000000
3492004347 2000 0.255510 1.529254 173.502289 0.792683 0.060976 -0.060976 0.000000 0.001465 1.019043 0.000000 0.000000 0.000000
3492006347 2000 0.255891 1.529362 173.501434 0.853659 0.304878 -0.243902 -0.001465 -0.001953 1.018066 0.000000 0.000000 0.000000
3492008347 2000 0.255634 1.529658 173.500092 0.975610 0.060976 -0.487805 0.000000 -0.002441 1.020020 0.000000 0.000000 0.000000
3492010347 2000 0.255169 1.528698 173.499466 0.670732 -0.060976 -0.121951 -0.000488 -0.008301 1.022949 0.000000 0.000000 0.000000
3492012347 2000 0.255919 1.528244 173.498871 0.975610 0.060976 -0.121951 -0.009277 -0.009277 1.024902 0.000000 0.000000 0.000000
3492014347 2000 0.255456 1.527990 173.498123 0.914634 -0.060976 -0.182927 -0.000488 -0.006348 1.021484 0.000000 0.000000 0.000000
3492016347 2000 0.255734 1.528194 173.497116 0.792683 -0.304878 -0.304878 -0.011719 0.000000 1.041992 0.000000 0.000000 0.000000
3492018347 2000 0.255766 1.527635 173.496643 0.731707 0.243902 -0.060976 0.000488 -0.005859 1.031250 0.000000 0.000000 0.000000
3492020347 2000 0.256963 1.528127 173.496048 0.853659 0.365854 -0.121951 -0.007812 0.001465 1.024414 0.000000 0.000000 0.000000
3492022347 2000 0.256757 1.527365 173.495682 0.792683 -0.060976 0.000000 -0.002930 -0.008789 1.027832 0.000000 0.000000 0.000000
3492024347 2000 0.256898 1.527641 173.494949 0.853659 0.000000 -0.182927 -0.004883 -0.000488 1.029297 0.000000 0.000000 0.000000
3492026347 2000 0.256784 1.528266 173.493729 0.975610 0.243902 -0.426829 0.001953 0.000488 1.018066 0.000000 0.000000 0.000000
3492028347 2000 0.256726 1.528234 173.492874 0.914634 0.060976 -0.243902 -0.001953 -0.004395 1.037109 0.000000 0.000000 0.000000
3492030347 2000 0.256445 1.527775 173.491776 0.487805 0.000000 -0.365854 -0.000977 -0.000488 1.035156 0.000000 0.000000 0.000000
3492032347 2000 0.256512 1.528049 173.490921 0.853659 0.121951 -0.243902 -0.001953 -0.000488 1.023926 0.000000 0.000000 0.000000
3492034347 2000 0.256511 1.528590 173.489594 0.853659 0.243902 -0.487805 0.000977 0.001953 1.026367 0.000000 0.000000 0.000000
3492036347 2000 0.255997 1.528472 173.488724 0.792683 -0.060976 -0.243902 0.000000 -0.002930 1.027832 0.000000 0.000000 0.000000
3492038347 2000 0.255409 1.529263 173.488602 0.975610 -0.060976 0.121951 0.000488 0.001953 1.018066 0.000000 0.000000 0.000000
3492040347 2000 0.255745 1.529086 173.487991 1.036585 0.121951 -0.121951 -0.004395 -0.007812 1.017090 0.000000 0.000000 0.000000
3492042347 2000 0.255998 1.528102 173.487259 0.792683 0.000000 -0.182927 -0.005859 -0.010742 1.024414 0.000000 0.000000 0.000000
3492044347 2000 0.256446 1.527778 173.487122 1.097561 -0.060976 0.121951 -0.008789 -0.010254 1.015625 0.000000 0.000000 0.000000
3492046347 2000 0.256807 1.528897 173.486008 1.036585 0.000000 -0.365854 -0.006836 0.003906 1.035645 0.000000 0.000000 0.000000
3492048347 2000 0.255789 1.529573 173.485275 0.731707 -0.121951 -0.182927 0.003418 0.005371 1.025391 0.000000 0.000000 0.000000
3492050347 2000 0.255435 1.530210 173.484558 0.792683 -0.060976 -0.182927 -0.001465 0.003906 1.020508 0.000000 0.000000 0.000000
3492052347 2000 0.256007 1.530577 173.484177 0.792683 0.000000 0.000000 -0.008789 0.001465 1.019531 0.000000 0.000000 0.000000
3492054347 2000 0.256637 1.530509 173.483582 0.792683 0.243902 -0.121951 -0.004883 -0.002441 1.023926 0.000000 0.000000 0.000000
3492056347 2000 0.256896 1.530613 173.482117 0.853659 0.182927 -0.548781 -0.002441 -0.001953 1.022949 0.000000 0.000000 0.000000
3492058347 2000 0.256592 1.530354 173.480774 0.670732 0.304878 -0.487805 0.004883 -0.001953 1.041504 0.000000 0.000000 0.000000
3492060347 2000 0.255254 1.530352 173.479797 0.853659 -0.121951 -0.304878 0.006348 -0.002930 1.020996 0.000000 0.000000 0.000000
3492062347 2000 0.254736 1.529868 173.479675 0.609756 0.000000 0.121951 0.000977 -0.002930 1.028809 0.000000 0.000000 0.000000
3492064347 2000 0.255093 1.530097 173.478683 1.158537 -0.060976 -0.304878 -0.007812 -0.006348 1.023438 0.000000 0.000000 0.000000
3492066347 2000 0.256163 1.530788 173.478195 1.036585 0.060976 -0.060976 -0.012207 0.000000 1.026367 0.000000 0.000000 0.000000
3492068347 2000 0.256775 1.531316 173.477478 1.036585 0.182927 -0.182927 -0.005859 -0.001465 1.034180 0.000000 0.000000 0.000000
3492070347 2000 0.257148 1.531567 173.476257 0.792683 0.243902 -0.426829 -0.002441 0.000488 1.024414 0.000000 0.000000 0.000000
3492072347 2000 0.257476 1.531199 173.475769 0.670732 -0.121951 -0.060976 -0.008789 -0.002930 1.020996 0.000000 0.000000 0.000000
3492074347 2000 0.257618 1.531197 173.475037 0.853659 0.000000 -0.182927 -0.004883 -0.002930 1.024902 0.000000 0.000000 0.000000
3492076347 2000 0.257540 1.531411 173.474411 0.853659 0.000000 -0.121951 -0.002930 -0.000977 1.024414 0.000000 0.000000 0.000000
3492078347 2000 0.258167 1.531221 173.473831 0.731707 0.487805 -0.121951 -0.000488 -0.002441 1.029785 0.000000 0.000000 0.000000
3492080347 2000 0.258638 1.531545 173.473465 0.853659 0.060976 0.000000 -0.006836 0.000000 1.021973 0.000000 0.000000 0.000000
3492082347 2000 0.259011 1.530648 173.473221 0.975610 0.121951 0.060976 -0.004883 -0.013184 1.019043 0.000000 0.000000 0.000000
3492084347 2000 0.259265 1.531400 173.472610 0.853659 0.060976 -0.121951 -0.004883 0.003906 1.030273 0.000000 0.000000 0.000000
3492086347 2000 0.259604 1.531382 173.471390 0.792683 0.121951 -0.426829 -0.004395 -0.001953 1.029297 0.000000 0.000000 0.000000
3492088347 2000 0.259245 1.531612 173.471024 0.914634 0.000000 0.000000 -0.000488 -0.001953 1.028320 0.000000 0.000000 0.000000
3492090347 2000 0.260338 1.531335 173.470413 0.853659 0.121951 -0.121951 -0.011230 -0.005371 1.014160 0.000000 0.000000 0.000000
3492092347 2000 0.259695 1.531086 173.468933 0.731707 -0.182927 -0.548781 -0.000977 -0.002930 1.029297 0.000000 0.000000 0.000000
3492094347 2000 0.259252 1.531521 173.467712 0.670732 0.000000 -0.426829 0.000488 0.004395 1.035156 0.000000 0.000000 0.000000
3492096347 2000 0.259865 1.531179 173.466370 0.792683 0.121951 -0.487805 -0.006836 -0.004883 1.026367 0.000000 0.000000 0.000000
3492098347 2000 0.260308 1.529777 173.465759 0.609756 0.182927 -0.121951 -0.004395 -0.011230 1.029297 0.000000 0.000000 0.000000
3492100347 2000 0.260277 1.529058 173.464767 0.792683 -0.060976 -0.304878 -0.004395 -0.008301 1.020996 0.000000 0.000000 0.000000
3492102347 2000 0.260519 1.528824 173.464157 0.792683 -0.060976 -0.121951 -0.006836 -0.003906 1.004395 0.000000 0.000000 0.000000
3492104347 2000 0.261218 1.528796 173.463425 0.975610 0.060976 -0.182927 -0.008789 -0.005371 1.014160 0.000000 0.000000 0.000000
3492106347 2000 0.260606 1.528907 173.462784 0.853659 -0.182927 -0.121951 -0.001465 -0.001953 1.023926 0.000000 0.000000 0.000000
3492108347 2000 0.260153 1.529883 173.461823 0.853659 0.000000 -0.304878 0.000488 0.005859 1.020996 0.000000 0.000000 0.000000
3492110347 2000 0.260253 1.530289 173.460953 0.975610 0.060976 -0.243902 -0.003418 -0.001465 1.023438 0.000000 0.000000 0.000000
3492112347 2000 0.260127 1.530573 173.460464 1.158537 0.060976 -0.060976 -0.001465 -0.005859 1.021484 0.000000 0.000000 0.000000
3492114347 2000 0.259859 1.529875 173.459259 0.670732 0.060976 -0.426829 0.000000 -0.005859 1.013672 0.000000 0.000000 0.000000
3492116347 2000 0.259990 1.529174 173.458755 0.853659 0.000000 -0.060976 -0.004883 -0.009277 1.023926 0.000000 0.000000 0.000000
3492118347 2000 0.259429 1.529393 173.458389 0.853659 0.060976 0.000000 0.002441 -0.000977 1.024414 0.000000 0.000000 0.000000
3492120347 2000 0.258797 1.529489 173.457657 0.792683 -0.060976 -0.182927 0.000977 -0.000977 1.034668 0.000000 0.000000 0.000000
3492122347 2000 0.259217 1.529870 173.457169 0.853659 0.060976 -0.060976 -0.006348 0.000488 1.019531 0.000000 0.000000 0.000000
3492124347 2000 0.260042 1.529483 173.456192 0.792683 0.182927 -0.304878 -0.007812 -0.005371 1.036133 0.000000 0.000000 0.000000
3492126347 2000 0.260013 1.529526 173.455460 0.792683 0.000000 -0.182927 -0.003418 -0.001465 1.035156 0.000000 0.000000 0.000000
3492128347 2000 0.260655 1.528909 173.454834 0.731707 0.121951 -0.121951 -0.007324 -0.006348 1.030762 0.000000 0.000000 0.000000
3492130347 2000 0.260864 1.529332 173.454483 0.792683 0.121951 0.000000 -0.003418 0.001953 1.021484 0.000000 0.000000 0.000000
3492132347 2000 0.260960 1.528480 173.453751 0.670732 0.060976 -0.182927 -0.003418 -0.007324 1.021484 0.000000 0.000000 0.000000
3492134347 2000 0.260547 1.528859 173.452759 0.853659 -0.060976 -0.304878 -0.000977 0.000488 1.027832 0.000000 0.000000 0.000000
3492136347 2000 0.259756 1.528210 173.451782 0.853659 -0.060976 -0.304878 0.002441 -0.008789 1.020508 0.000000 0.000000 0.000000
3492138347 2000 0.259340 1.528416 173.451050 0.792683 0.182927 -0.182927 0.003418 0.000000 1.023438 0.000000 0.000000 0.000000
3492140347 2000 0.258741 1.528064 173.450073 0.975610 0.060976 -0.304878 0.002930 -0.008301 1.019043 0.000000 0.000000 0.000000
3492142347 2000 0.258190 1.528600 173.449463 1.280488 0.060976 -0.121951 0.002441 -0.005859 1.029785 0.000000 0.000000 0.000000
3492144347 2000 0.257947 1.528790 173.448837 0.731707 0.000000 -0.121951 -0.001465 0.000977 1.035156 0.000000 0.000000 0.000000
3492146347 2000 0.257509 1.529277 173.448120 0.853659 0.060976 -0.182927 0.001465 0.001465 1.032715 0.000000 0.000000 0.000000
3492148347 2000 0.258466 1.529763 173.446777 1.097561 0.182927 -0.487805 -0.008789 -0.002930 1.023926 0.000000 0.000000 0.000000
3492150347 2000 0.258715 1.529661 173.445938 0.853659 0.243902 -0.243902 -0.001465 -0.003906 1.040039 0.000000 0.000000 0.000000
3492152347 2000 0.259344 1.528060 173.444458 0.670732 0.182927 -0.548781 -0.005859 -0.014160 1.030273 0.000000 0.000000 0.000000
3492154347 2000 0.259697 1.528200 173.443726 0.975610 0.000000 -0.182927 -0.006836 -0.003906 1.026855 0.000000 0.000000 0.000000
3492156347 2000 0.259919 1.527881 173.443344 0.609756 -0.060976 0.000000 -0.006836 -0.001465 1.024414 0.000000 0.000000 0.000000
3492158347 2000 0.260118 1.526853 173.442383 0.609756 0.243902 -0.304878 -0.000977 -0.007812 1.019043 0.000000 0.000000 0.000000
3492160347 2000 0.259546 1.526956 173.442261 0.792683 -0.182927 0.121951 -0.001953 -0.000977 1.038086 0.000000 0.000000 0.000000
3492162347 2000 0.259121 1.528170 173.441284 0.914634 0.121951 -0.304878 0.002441 0.006836 1.015625 0.000000 0.000000 0.000000
3492164347 2000 0.259440 1.527629 173.440796 1.036585 0.121951 -0.060976 -0.004395 -0.011230 1.030273 0.000000 0.000000 0.000000
3492166347 2000 0.260313 1.527365 173.439697 0.853659 0.121951 -0.365854 -0.009277 -0.005371 1.029297 0.000000 0.000000 0.000000
3492168347 2000 0.260523 1.527642 173.439194 0.853659 -0.121951 -0.060976 -0.007812 -0.000488 1.024414 0.000000 0.000000 0.000000
3492170347 2000 0.261174 1.527682 173.438217 1.219512 0.121951 -0.304878 -0.007324 -0.009277 1.032227 0.000000 0.000000 0.000000
3492172347 2000 0.260934 1.526647 173.437851 0.548781 0.060976 0.000000 -0.000488 -0.006836 1.023926 0.000000 0.000000 0.000000
3492174347 2000 0.261545 1.526938 173.436996 0.914634 0.182927 -0.243902 -0.005859 -0.001465 1.026367 0.000000 0.000000 0.000000
3492176347 2000 0.262045 1.526029 173.436157 0.853659 0.182927 -0.243902 -0.004883 -0.011230 1.027832 0.000000 0.000000 0.000000
3492178347 2000 0.262287 1.525802 173.435059 0.975610 0.426829 -0.365854 0.001953 -0.007324 1.037109 0.000000 0.000000 0.000000
3492180347 2000 0.261426 1.526699 173.434082 0.975610 -0.121951 -0.304878 0.001953 0.002930 1.031250 0.000000 0.000000 0.000000
3492182347 2000 0.260820 1.526853 173.433212 1.036585 0.060976 -0.243902 0.002930 -0.004883 1.020020 0.000000 0.000000 0.000000
3492184347 2000 0.260949 1.527318 173.432373 0.975610 0.182927 -0.243902 -0.001465 -0.000977 1.008301 0.000000 0.000000 0.000000
3492186347 2000 0.261199 1.526610 173.431870 0.792683 0.060976 -0.060976 -0.004883 -0.008301 1.025391 0.000000 0.000000 0.000000
3492188347 2000 0.261652 1.527062 173.430908 0.914634 0.182927 -0.304878 -0.004395 0.000000 1.022461 0.000000 0.000000 0.000000
3492190347 2000 0.262326 1.526916 173.429703 0.670732 0.426829 -0.426829 -0.001953 -0.000977 1.032227 0.000000 0.000000 0.000000
3492192347 2000 0.262169 1.525531 173.429214 0.670732 -0.060976 -0.060976 -0.003418 -0.012207 1.022461 0.000000 0.000000 0.000000
3492194347 2000 0.261661 1.525972 173.428726 0.853659 0.060976 -0.060976 0.001953 0.000977 1.027344 0.000000 0.000000 0.000000
3492196347 2000 0.261487 1.526386 173.427872 0.975610 0.060976 -0.243902 -0.000977 -0.001465 1.023438 0.000000 0.000000 0.000000
3492198347 2000 0.262057 1.526664 173.427383 0.853659 0.060976 -0.060976 -0.007812 -0.000488 1.028809 0.000000 0.000000 0.000000
3492200347 2000 0.262487 1.526547 173.426147 0.792683 0.060976 -0.426829 -0.006348 -0.002930 1.023926 0.000000 0.000000 0.000000
3492202347 2000 0.261626 1.526297 173.425171 0.914634 -0.121951 -0.304878 0.001953 -0.006348 1.025391 0.000000 0.000000 0.000000
3492204347 2000 0.261713 1.526282 173.424194 0.975610 0.243902 -0.304878 0.000000 -0.005371 1.033203 0.000000 0.000000 0.000000
3492206347 2000 0.261974 1.526683 173.423828 0.914634 -0.060976 0.000000 -0.007324 -0.000488 1.038574 0.000000 0.000000 0.000000
3492208347 2000 0.261185 1.525810 173.423218 0.548781 0.000000 -0.121951 0.003418 -0.005371 1.022461 0.000000 0.000000 0.000000
3492210347 2000 0.261686 1.525814 173.421387 0.853659 0.304878 -0.731707 -0.002441 -0.002930 1.029785 0.000000 0.000000 0.000000
3492212347 2000 0.261517 1.526674 173.420776 1.036585 -0.121951 -0.121951 -0.004395 0.001465 1.027344 0.000000 0.000000 0.000000
3492214347 2000 0.260813 1.526304 173.420013 1.097561 -0.121951 -0.182927 0.000488 -0.010742 1.024414 0.000000 0.000000 0.000000
3492216347 2000 0.260682 1.526216 173.419174 0.914634 0.243902 -0.243902 0.001953 -0.004883 1.020996 0.000000 0.000000 0.000000
3492218347 2000 0.259591 1.525822 173.418427 0.731707 -0.182927 -0.182927 0.002930 -0.004395 1.034668 0.000000 0.000000 0.000000
3492220347 2000 0.259262 1.526953 173.417450 1.036585 0.060976 -0.304878 0.000488 0.003906 1.019043 0.000000 0.000000 0.000000
3492222347 2000 0.259736 1.527325 173.415878 1.036585 0.426829 -0.609756 0.000000 -0.002930 1.040527 0.000000 0.000000 0.000000
3492224347 2000 0.260648 1.527356 173.414795 0.731707 0.304878 -0.365854 -0.006348 -0.000488 1.033203 0.000000 0.000000 0.000000
3492226347 2000 0.260362 1.527578 173.414185 1.097561 0.060976 -0.121951 0.000000 -0.005371 1.021973 0.000000 0.000000 0.000000
3492228347 2000 0.260816 1.527878 173.413223 0.731707 0.182927 -0.304878 -0.004395 0.001953 1.023926 0.000000 0.000000 0.000000
3492230347 2000 0.260127 1.528634 173.411987 0.853659 -0.121951 -0.426829 0.000488 0.003906 1.030273 0.000000 0.000000 0.000000
3492232347 2000 0.259528 1.527925 173.410873 0.792683 -0.182927 -0.365854 -0.001465 -0.008301 1.032715 0.000000 0.000000 0.000000
3492234347 2000 0.259160 1.527756 173.410370 1.036585 -0.060976 -0.060976 -0.001465 -0.007812 1.022949 0.000000 0.000000 0.000000
3492236347 2000 0.260563 1.529188 173.409775 0.914634 0.304878 -0.121951 -0.010742 0.008789 1.015137 0.000000 0.000000 0.000000
3492238347 2000 0.260130 1.528198 173.409164 0.548781 -0.121951 -0.121951 -0.001953 -0.006348 1.015137 0.000000 0.000000 0.000000
3492240347 2000 0.259883 1.527976 173.408173 1.036585 0.182927 -0.304878 0.001953 -0.008301 1.028320 0.000000 0.000000 0.000000
3492242347 2000 0.259516 1.527965 173.407684 0.792683 -0.060976 -0.060976 -0.001465 -0.001953 1.010742 0.000000 0.000000 0.000000
3492244347 2000 0.258247 1.528822 173.406937 1.036585 -0.243902 -0.182927 0.003418 0.001465 1.022461 0.000000 0.000000 0.000000
3492246347 2000 0.258423 1.528354 173.405975 0.670732 0.365854 -0.304878 0.001465 -0.003906 1.035156 0.000000 0.000000 0.000000
3492248347 2000 0.258131 1.528397 173.405243 0.792683 0.000000 -0.182927 -0.000977 -0.001465 1.023926 0.000000 0.000000 0.000000
3492250347 2000 0.258987 1.528603 173.404373 0.792683 0.000000 -0.243902 -0.011230 0.000000 1.016602 0.000000 0.000000 0.000000
3492252347 2000 0.259039 1.530152 173.403641 1.036585 -0.121951 -0.182927 -0.006348 0.007812 1.033203 0.000000 0.000000 0.000000
3492254347 2000 0.259118 1.531164 173.403183 1.036585 0.243902 -0.060976 0.000000 0.002930 1.032227 0.000000 0.000000 0.000000
3492256347 2000 0.259538 1.531403 173.402084 0.975610 0.243902 -0.365854 -0.002930 -0.002930 1.022949 0.000000 0.000000 0.000000
3492258347 2000 0.258317 1.531472 173.401077 1.158537 -0.304878 -0.304878 0.001953 -0.007812 1.028320 0.000000 0.000000 0.000000
3492260347 2000 0.258158 1.530820 173.400467 0.609756 0.121951 -0.121951 0.000000 -0.004395 1.024414 0.000000 0.000000 0.000000
3492262347 2000 0.256851 1.531209 173.399353 0.914634 -0.243902 -0.365854 0.003906 -0.000488 1.030273 0.000000 0.000000 0.000000
3492264347 2000 0.256827 1.531598 173.398361 0.914634 -0.060976 -0.304878 -0.004395 -0.000488 1.020508 0.000000 0.000000 0.000000
3492266347 2000 0.257424 1.531283 173.397995 0.914634 0.121951 0.000000 -0.006836 -0.006836 1.018555 0.000000 0.000000 0.000000
3492268347 2000 0.256923 1.531743 173.397156 1.219512 0.243902 -0.243902 0.005371 -0.005371 1.026855 0.000000 0.000000 0.000000
3492270347 2000 0.256874 1.530541 173.396545 0.792683 0.121951 -0.121951 -0.000977 -0.012695 1.025879 0.000000 0.000000 0.000000
3492272347 2000 0.256916 1.530745 173.395447 1.036585 0.000000 -0.365854 -0.003906 -0.004395 1.031250 0.000000 0.000000 0.000000
3492274347 2000 0.257877 1.530771 173.394974 0.731707 0.304878 -0.060976 -0.006836 -0.000488 1.025391 0.000000 0.000000 0.000000
3492276347 2000 0.257934 1.530972 173.394363 0.792683 0.121951 -0.121951 -0.001953 0.000000 1.029785 0.000000 0.000000 0.000000
3492278347 2000 0.257322 1.530916 173.393509 0.853659 0.000000 -0.243902 0.001953 -0.003418 1.028320 0.000000 0.000000 0.000000
3492280347 2000 0.256302 1.531171 173.392761 0.792683 -0.121951 -0.182927 0.003418 0.000488 1.022461 0.000000 0.000000 0.000000
3492282347 2000 0.255473 1.530556 173.392136 0.975610 0.000000 -0.121951 0.003906 -0.010742 1.031250 0.000000 0.000000 0.000000
3492284347 2000 0.256160 1.530648 173.390915 0.792683 -0.060976 -0.426829 -0.010742 -0.000977 1.022949 0.000000 0.000000 0.000000
3492286347 2000 0.255897 1.530631 173.389801 0.792683 -0.182927 -0.365854 -0.004395 -0.001953 1.018066 0.000000 0.000000 0.000000
3492288347 2000 0.255807 1.530399 173.389328 0.792683 0.182927 -0.060976 0.000488 -0.003906 1.018555 0.000000 0.000000 0.000000
3492290347 2000 0.255425 1.531131 173.388092 0.731707 0.000000 -0.426829 0.000000 0.005859 1.015137 0.000000 0.000000 0.000000
3492292347 2000 0.255278 1.531047 173.387253 0.731707 0.121951 -0.243902 0.000000 -0.001465 1.029785 0.000000 0.000000 0.000000
3492294347 2000 0.255446 1.530985 173.386627 1.036585 0.121951 -0.121951 -0.002930 -0.006836 1.033203 0.000000 0.000000 0.000000
3492296347 2000 0.254993 1.530659 173.386154 0.609756 0.243902 -0.060976 0.004883 -0.001465 1.025879 0.000000 0.000000 0.000000
3492298347 2000 0.254595 1.529632 173.385056 0.609756 -0.060976 -0.365854 -0.000977 -0.007812 1.027344 0.000000 0.000000 0.000000
3492300347 2000 0.254851 1.528771 173.384064 0.914634 -0.060976 -0.304878 -0.006836 -0.011719 1.015137 0.000000 0.000000 0.000000
3492302347 2000 0.255152 1.528343 173.382950 0.853659 -0.060976 -0.365854 -0.007324 -0.006836 1.028809 0.000000 0.000000 0.000000
3492304347 2000 0.255080 1.528523 173.382324 0.914634 0.000000 -0.121951 -0.002930 -0.002441 1.024902 0.000000 0.000000 0.000000
3492306347 2000 0.255014 1.528401 173.380997 0.792683 0.182927 -0.487805 0.000488 -0.002930 1.022461 0.000000 0.000000 0.000000
3492308347 2000 0.254688 1.528008 173.380157 0.792683 0.304878 -0.243902 0.004883 -0.005371 1.015625 0.000000 0.000000 0.000000
3492310347 2000 0.254453 1.528338 173.379684 0.853659 0.243902 -0.060976 0.002930 0.000000 1.028809 0.000000 0.000000 0.000000
3492312347 2000 0.254058 1.528212 173.379059 0.975610 0.000000 -0.121951 0.000000 -0.006348 1.031250 0.000000 0.000000 0.000000
3492314347 2000 0.254011 1.527726 173.378098 0.853659 0.304878 -0.304878 0.002441 -0.007324 1.020996 0.000000 0.000000 0.000000
3492316347 2000 0.254300 1.527605 173.377258 0.548781 0.365854 -0.243902 0.000488 0.001465 1.033691 0.000000 0.000000 0.000000
3492318347 2000 0.254036 1.526644 173.376282 0.609756 0.060976 -0.304878 0.000000 -0.007324 1.037109 0.000000 0.000000 0.000000
3492320347 2000 0.254145 1.526947 173.375534 0.731707 0.060976 -0.182927 -0.003418 0.001953 1.023438 0.000000 0.000000 0.000000
3492322347 2000 0.254757 1.526612 173.374939 0.792683 0.121951 -0.121951 -0.006836 -0.004883 1.014160 0.000000 0.000000 0.000000
3492324347 2000 0.255127 1.526865 173.374451 0.975610 0.060976 -0.060976 -0.005859 -0.002930 1.026367 0.000000 0.000000 0.000000
3492326347 2000 0.255306 1.526462 173.373596 0.975610 0.121951 -0.243902 -0.002930 -0.008789 1.019043 0.000000 0.000000 0.000000
3492328347 2000 0.255305 1.526185 173.372864 0.792683 0.060976 -0.182927 -0.002441 -0.004395 1.021973 0.000000 0.000000 0.000000
3492330347 2000 0.254574 1.524730 173.372116 0.792683 -0.060976 -0.182927 0.001953 -0.015137 1.030273 0.000000 0.000000 0.000000
3492332347 2000 0.255142 1.525513 173.371490 0.914634 -0.060976 -0.121951 -0.009766 0.002930 1.019043 0.000000 0.000000 0.000000
3492334347 2000 0.255996 1.525448 173.370911 0.975610 0.304878 -0.121951 -0.005859 -0.005859 1.035645 0.000000 0.000000 0.000000
3492336347 2000 0.256454 1.524817 173.370544 0.853659 0.243902 0.000000 -0.003418 -0.008789 1.030762 0.000000 0.000000 0.000000
3492338347 2000 0.256492 1.525448 173.369690 0.975610 0.000000 -0.243902 -0.003906 0.000488 1.027344 0.000000 0.000000 0.000000
3492340347 2000 0.256999 1.525662 173.369095 1.036585 0.426829 -0.121951 -0.000488 -0.004395 1.025879 0.000000 0.000000 0.000000
3492342347 2000 0.256772 1.525993 173.368134 0.853659 0.243902 -0.304878 0.002930 0.000000 1.028809 0.000000 0.000000 0.000000
3492344347 2000 0.256117 1.525476 173.367386 0.670732 -0.182927 -0.182927 -0.000977 -0.004395 1.029785 0.000000 0.000000 0.000000
3492346347 2000 0.257444 1.526540 173.366165 0.975610 0.121951 -0.426829 -0.013184 0.004395 1.019531 0.000000 0.000000 0.000000
3492348347 2000 0.257654 1.526558 173.365448 0.670732 0.304878 -0.182927 0.000000 0.000488 1.033203 0.000000 0.000000 0.000000
3492350347 2000 0.257911 1.526440 173.365082 0.975610 -0.121951 0.000000 -0.008301 -0.006348 1.036133 0.000000 0.000000 0.000000
3492352347 2000 0.256988 1.526430 173.364075 0.792683 -0.182927 -0.304878 0.001465 -0.001953 1.009766 0.000000 0.000000 0.000000
3492354347 2000 0.257311 1.526259 173.362747 0.792683 0.243902 -0.487805 -0.001953 -0.003418 1.024414 0.000000 0.000000 0.000000
3492356347 2000 0.257444 1.526428 173.361893 0.853659 0.182927 -0.243902 -0.001465 -0.001465 1.021484 0.000000 0.000000 0.000000
3492358347 2000 0.256723 1.526573 173.361160 0.975610 0.000000 -0.182927 0.002930 -0.003906 1.029785 0.000000 0.000000 0.000000
3492360347 2000 0.255697 1.527040 173.360306 0.975610 0.060976 -0.243902 0.006836 -0.000977 1.027344 0.000000 0.000000 0.000000
3492362347 2000 0.256333 1.526910 173.359344 0.731707 0.243902 -0.304878 -0.004883 -0.001953 1.029785 0.000000 0.000000 0.000000
3492364347 2000 0.255663 1.526179 173.358215 0.914634 -0.060976 -0.365854 0.001465 -0.010742 1.030762 0.000000 0.000000 0.000000
3492366347 2000 0.255749 1.527132 173.357254 1.219512 0.182927 -0.304878 -0.000977 -0.000977 1.022461 0.000000 0.000000 0.000000
3492368347 2000 0.255976 1.528302 173.356049 0.792683 0.304878 -0.426829 0.000000 0.008789 1.032715 0.000000 0.000000 0.000000
3492370347 2000 0.255351 1.528830 173.355316 0.792683 -0.060976 -0.182927 0.000977 0.002930 1.030762 0.000000 0.000000 0.000000
3492372347 2000 0.254691 1.528618 173.354446 0.853659 0.000000 -0.243902 0.002441 -0.004883 1.030273 0.000000 0.000000 0.000000
3492374347 2000 0.254532 1.528888 173.353119 0.853659 0.487805 -0.487805 0.006836 -0.000488 1.022949 0.000000 0.000000 0.000000
3492376347 2000 0.254829 1.529430 173.351913 1.097561 0.121951 -0.426829 -0.003906 -0.002441 1.023438 0.000000 0.000000 0.000000
3492378347 2000 0.254040 1.529838 173.351288 0.975610 -0.060976 -0.121951 0.002441 -0.001465 1.023438 0.000000 0.000000 0.000000
3492380347 2000 0.253471 1.529077 173.350815 0.792683 0.182927 -0.060976 0.004883 -0.008789 1.032715 0.000000 0.000000 0.000000
3492382347 2000 0.253651 1.529271 173.350449 0.975610 -0.060976 0.000000 -0.006348 -0.003418 1.025391 0.000000 0.000000 0.000000
3492384347 2000 0.254072 1.529303 173.350082 0.975610 0.060976 0.000000 -0.006348 -0.004883 1.027832 0.000000 0.000000 0.000000
3492386347 2000 0.254310 1.529426 173.349075 1.158537 -0.121951 -0.304878 -0.007812 -0.007324 1.021973 0.000000 0.000000 0.000000
3492388347 2000 0.254375 1.529386 173.348480 0.670732 0.121951 -0.121951 -0.001953 0.000000 1.021484 0.000000 0.000000 0.000000
3492390347 2000 0.254535 1.528995 173.347870 0.792683 0.060976 -0.121951 -0.003906 -0.005371 1.020996 0.000000 0.000000 0.000000
3492392347 2000 0.254952 1.527928 173.347137 0.853659 0.243902 -0.182927 -0.002930 -0.012695 1.032715 0.000000 0.000000 0.000000
3492394347 2000 0.254533 1.526990 173.346283 0.792683 0.121951 -0.243902 0.002441 -0.010254 1.014648 0.000000 0.000000 0.000000
3492396347 2000 0.253837 1.527321 173.345673 0.853659 0.121951 -0.121951 0.004883 0.000000 1.017578 0.000000 0.000000 0.000000
3492398347 2000 0.253642 1.526905 173.345200 0.914634 0.182927 -0.060976 0.001465 -0.007812 1.018066 0.000000 0.000000 0.000000
3492400347 2000 0.253441 1.526371 173.344467 0.609756 0.121951 -0.182927 0.000488 -0.003418 1.026855 0.000000 0.000000 0.000000
3492402347 2000 0.253318 1.527351 173.343842 0.853659 0.000000 -0.121951 -0.002441 0.005859 1.023438 0.000000 0.000000 0.000000
3492404347 2000 0.253195 1.526304 173.343231 0.731707 0.000000 -0.121951 -0.002441 -0.010254 1.023926 0.000000 0.000000 0.000000
3492406347 2000 0.253435 1.526837 173.342270 0.792683 0.121951 -0.304878 -0.003418 0.002930 1.021973 0.000000 0.000000 0.000000
3492408347 2000 0.253404 1.526616 173.341644 0.792683 -0.060976 -0.121951 -0.004395 -0.003906 1.027344 0.000000 0.000000 0.000000
3492410347 2000 0.252777 1.525297 173.340652 0.792683 -0.121951 -0.304878 0.000000 -0.013672 1.013184 0.000000 0.000000 0.000000
3492412347 2000 0.252990 1.525176 173.340042 0.975610 0.060976 -0.121951 -0.004395 -0.006348 1.030273 0.000000 0.000000 0.000000
3492414347 2000 0.252862 1.525623 173.339203 0.670732 0.182927 -0.243902 0.000977 0.004395 1.037598 0.000000 0.000000 0.000000
3492416347 2000 0.252986 1.525055 173.338470 0.914634 0.121951 -0.182927 -0.002441 -0.009277 1.028320 0.000000 0.000000 0.000000
3492418347 2000 0.252021 1.526188 173.338104 1.036585 0.121951 0.000000 0.007324 0.003906 1.025391 0.000000 0.000000 0.000000
3492420347 2000 0.252633 1.525630 173.337265 0.914634 0.365854 -0.243902 -0.002441 -0.009277 1.040527 0.000000 0.000000 0.000000
3492422347 2000 0.252208 1.526099 173.336914 0.731707 0.121951 0.000000 0.002441 0.003418 1.024414 0.000000 0.000000 0.000000
3492424347 2000 0.251985 1.526309 173.336060 0.792683 0.243902 -0.243902 0.002930 0.000000 1.017090 0.000000 0.000000 0.000000
3492426347 2000 0.251827 1.526927 173.335327 1.158537 0.060976 -0.182927 -0.000977 -0.002930 1.027344 0.000000 0.000000 0.000000
3492428347 2000 0.250787 1.527420 173.334854 0.853659 0.000000 -0.060976 0.005859 0.001465 1.028320 0.000000 0.000000 0.000000
3492430347 2000 0.251032 1.527019 173.334335 0.731707 -0.060976 -0.060976 -0.006836 -0.004395 1.021973 0.000000 0.000000 0.000000
3492432347 2000 0.250958 1.527188 173.333618 0.853659 0.182927 -0.182927 0.000488 -0.001465 1.029785 0.000000 0.000000 0.000000
3492434347 2000 0.251272 1.527302 173.332764 0.853659 0.000000 -0.243902 -0.006348 -0.001953 1.034668 0.000000 0.000000 0.000000
3492436347 2000 0.251212 1.527279 173.331528 0.731707 -0.243902 -0.426829 -0.007324 -0.000977 1.037109 0.000000 0.000000 0.000000
3492438347 2000 0.250673 1.527070 173.330902 0.853659 -0.182927 -0.121951 -0.001953 -0.004883 1.026855 0.000000 0.000000 0.000000
3492440347 2000 0.251017 1.527375 173.330048 0.975610 0.121951 -0.243902 -0.004395 -0.002441 1.033691 0.000000 0.000000 0.000000
3492442347 2000 0.250713 1.526770 173.328827 0.792683 0.060976 -0.426829 0.000488 -0.007324 1.024414 0.000000 0.000000 0.000000
3492444347 2000 0.250511 1.527436 173.328079 0.914634 -0.121951 -0.182927 -0.003906 0.001953 1.036621 0.000000 0.000000 0.000000
3492446347 2000 0.251215 1.528104 173.327225 0.914634 0.000000 -0.243902 -0.009766 0.001953 1.020020 0.000000 0.000000 0.000000
3492448347 2000 0.251463 1.528081 173.326508 0.731707 0.182927 -0.182927 -0.002441 -0.000977 1.030762 0.000000 0.000000 0.000000
3492450347 2000 0.251998 1.529154 173.325775 0.792683 0.000000 -0.182927 -0.008301 0.007812 1.020996 0.000000 0.000000 0.000000
3492452347 2000 0.251744 1.529773 173.325165 0.731707 0.121951 -0.121951 0.000977 0.004883 1.032715 0.000000 0.000000 0.000000
3492454347 2000 0.251361 1.529503 173.324554 0.609756 -0.182927 -0.121951 -0.003418 -0.000977 1.038086 0.000000 0.000000 0.000000
3492456347 2000 0.251757 1.529991 173.324310 0.853659 0.182927 0.060976 -0.003906 0.001465 1.028320 0.000000 0.000000 0.000000
3492458347 2000 0.252953 1.530116 173.323471 1.158537 0.304878 -0.243902 -0.008789 -0.007324 1.026855 0.000000 0.000000 0.000000
3492460347 2000 0.252933 1.530493 173.322479 0.853659 -0.060976 -0.304878 -0.004395 0.000488 1.027832 0.000000 0.000000 0.000000
3492462347 2000 0.252457 1.530383 173.321991 0.853659 -0.121951 -0.060976 -0.001465 -0.003906 1.017090 0.000000 0.000000 0.000000
3492464347 2000 0.252748 1.530182 173.321014 0.914634 0.121951 -0.304878 -0.003906 -0.005859 1.030762 0.000000 0.000000 0.000000
3492466347 2000 0.252420 1.530641 173.320023 0.975610 0.000000 -0.304878 -0.000488 -0.000977 1.029785 0.000000 0.000000 0.000000
3492468347 2000 0.253392 1.530876 173.319794 1.158537 0.121951 0.060976 -0.010254 -0.006348 1.028809 0.000000 0.000000 0.000000
3492470347 2000 0.253397 1.531618 173.318939 1.036585 0.060976 -0.243902 -0.002441 0.000488 1.024902 0.000000 0.000000 0.000000
3492472347 2000 0.254458 1.531806 173.318329 0.975610 0.243902 -0.121951 -0.008789 -0.003418 1.029297 0.000000 0.000000 0.000000
3492474347 2000 0.255363 1.532103 173.317490 0.975610 0.060976 -0.243902 -0.010742 -0.002441 1.039062 0.000000 0.000000 0.000000
3492476347 2000 0.254811 1.531957 173.316391 0.975610 0.243902 -0.365854 0.005859 -0.006348 1.013184 0.000000 0.000000 0.000000
3492478347 2000 0.254348 1.532139 173.315414 0.731707 0.121951 -0.304878 0.002930 0.000977 1.035645 0.000000 0.000000 0.000000
3492480347 2000 0.253677 1.533083 173.314438 0.975610 -0.060976 -0.304878 0.001465 0.003418 1.017090 0.000000 0.000000 0.000000
3492482347 2000 0.253074 1.532579 173.313583 0.792683 0.000000 -0.243902 0.001953 -0.006348 1.028809 0.000000 0.000000 0.000000
3492484347 2000 0.253505 1.533060 173.312958 0.853659 0.060976 -0.121951 -0.006348 0.001465 1.025879 0.000000 0.000000 0.000000
3492486347 2000 0.253161 1.531778 173.311981 0.670732 -0.060976 -0.304878 -0.001465 -0.011230 1.030762 0.000000 0.000000 0.000000
3492488347 2000 0.253149 1.532355 173.311249 0.792683 0.000000 -0.182927 -0.003418 0.003418 1.023438 0.000000 0.000000 0.000000
3492490347 2000 0.253763 1.532919 173.310760 0.975610 0.182927 -0.060976 -0.005859 0.000000 1.030273 0.000000 0.000000 0.000000
3492492347 2000 0.253789 1.533414 173.310165 0.914634 0.182927 -0.121951 -0.000488 0.000488 1.021484 0.000000 0.000000 0.000000
3492494347 2000 0.254650 1.532825 173.309158 0.914634 -0.243902 -0.304878 -0.015625 -0.009277 1.021973 0.000000 0.000000 0.000000
3492496347 2000 0.254380 1.533797 173.308426 0.853659 0.060976 -0.182927 0.000000 0.005859 1.016602 0.000000 0.000000 0.000000
3492498347 2000 0.255658 1.533505 173.307205 0.792683 0.182927 -0.426829 -0.011719 -0.004395 1.028320 0.000000 0.000000 0.000000
3492500347 2000 0.255244 1.533785 173.306244 1.158537 0.121951 -0.304878 0.002441 -0.005859 1.029297 0.000000 0.000000 0.000000
3492502347 2000 0.255683 1.533662 173.305374 1.036585 -0.121951 -0.243902 -0.009766 -0.007324 1.032227 0.000000 0.000000 0.000000
3492504347 2000 0.255404 1.533842 173.304398 0.975610 0.000000 -0.304878 -0.000977 -0.003418 1.017578 0.000000 0.000000 0.000000
